File: Carboncapture/XRD data/Pt_al2o3_600C.csv
2 theta,Intensity
5.0001,-0.0436797
5.06142,0.0124757
5.12274,0.0931227
5.18406,0.116664
5.24537,0.0622671
5.30669,0.0965977
5.36801,0.0234756
5.42933,-0.0251548
5.49065,0.0409844
5.55197,0.0795319
5.61329,0.029724
5.6746,0.141561
5.73592,-0.005097234
5.79724,0.006417267
5.85856,0.0389513
5.91988,-0.0168702
5.9812,-0.0429916
6.04252,0.0456565
6.10384,-0.033912
6.16515,0.0499002
6.22647,0.008898512
6.28779,0.0791941
6.34911,0.102801
6.41043,0.005066128
6.47175,0.055087
6.53307,0.103558
6.59438,0.0497844
6.6557,-0.02984459
6.71702,0.116407
6.77834,0.061456
6.83966,0.0934967
6.90098,-0.0496236
6.9623,0.002795427
7.02361,0.001581222
7.08493,-0.0324329
7.14625,-0.0419553
7.20757,0.0563474
7.26889,0.0940723
7.33021,0.0694835
7.39153,0.0815391
7.45284,-0.031219
7.51416,0.0483424
7.57548,0.0279762
7.6368,0.138005
7.69812,0.01210792
7.75944,0.0409114
7.82076,0.0508038
7.88208,0.06782682
7.94339,0.0780916
8.00471,-0.005207452
8.06603,0.0505686
8.12735,0.0127808
8.18867,-0.0421819
8.24999,0.0384582
8.31131,-0.003979406
8.37262,0.0527275
8.43394,0.0696901
8.49526,0.0399638
8.55658,-0.0937429
8.6179,0.0697736
8.67922,0.0563929
8.74054,0.05187901
8.80185,0.0267179
8.86317,-0.133674
8.92449,0.0766783
8.98581,-0.01313081
9.04713,-0.028101
9.10845,-0.0550377
9.16977,0.006287015
9.23108,0.0365479
9.2924,0.004495058
9.35372,0.014295
9.41504,0.0364339
9.47636,-0.0558243
9.53768,-0.0437297
9.599,0.0258428
9.66032,0.0348375
9.72163,-0.041051
9.78295,0.0499134
9.84427,-0.0117139
9.90559,-0.0905161
9.96691,0.082604
10.0282,0.172577
10.0895,-0.01504167
10.1509,0.01395699
10.2122,0.0454546
10.2735,0.023319
10.3348,0.133314
10.3961,0.0525229
10.4575,0.065668
10.5188,-0.0807229
10.5801,0.0644745
10.6414,0.136941
10.7027,0.09674723
10.7641,0.176531
10.8254,0.0672647
10.8867,0.005059627
10.948,0.03331853
11.0093,0.150305
11.0706,0.0956032
11.132,0.11574
11.1933,0.101341
11.2546,0.114906
11.3159,-0.0588433
11.3772,0.120024
11.4386,0.233106
11.4999,-0.0008482
11.5612,0.188995
11.6225,0.148121
11.6838,0.124795
11.7451,0.05651563
11.8065,0.109951
11.8678,0.0160021
11.9291,0.226059
11.9904,0.108178
12.0517,0.240482
12.1131,0.251445
12.1744,0.0455807
12.2357,0.147194
12.297,0.136146
12.3583,0.12702
12.4197,0.20315
12.481,0.138842
12.5423,0.289997
12.6036,0.302449
12.6649,0.0164768
12.7262,0.291454
12.7876,0.250646
12.8489,0.128426
12.9102,0.219935
12.9715,0.233504
13.0328,0.236843
13.0942,0.158771
13.1555,0.179844
13.2168,0.102144
13.2781,0.13227
13.3394,0.181679
13.4008,0.144468
13.4621,0.162999
13.5234,0.331022
13.5847,0.198884
13.646,0.0738768
13.7073,-0.0127501
13.7687,0.143865
13.83,0.0558742
13.8913,0.145153
13.9526,-0.0553123
14.0139,0.096839
14.0753,-0.0338096
14.1366,0.141283
14.1979,0.0162155
14.2592,0.106612
14.3205,0.0322632
14.3818,0.0778927
14.4432,0.000444474
14.5045,-0.000428674
14.5658,0.0613844
14.6271,0.067828
14.6884,0.0675134
14.7498,0.0378711
14.8111,0.0761233
14.8724,0.003450576
14.9337,0.005616807
14.995,0.0218581
15.0564,0.137244
15.1177,0.002815921
15.179,-0.0723981
15.2403,0.0622119
15.3016,-0.0373669
15.3629,-0.0742595
15.4243,0.004084666
15.4856,0.146217
15.5469,0.180896
15.6082,0.193192
15.6695,0.203938
15.7309,0.0846619
15.7922,0.2746
15.8535,0.476877
15.9148,0.349479
15.9761,0.349003
16.0375,0.39906
16.0988,0.435415
16.1601,0.366054
16.2214,0.423614
16.2827,0.25393
16.344,0.240683
16.4054,0.113038
16.4667,0.240788
16.528,0.288863
16.5893,0.236429
16.6506,0.1043209
16.712,0.008857058
16.7733,0.007329397
16.8346,-0.122484
16.8959,0.004796393
16.9572,0.118302
17.0185,0.0844242
17.0799,0.005593774
17.1412,0.0675745
17.2025,0.0724498
17.2638,0.0966085
17.3251,-0.0630745
17.3865,0.0291649
17.4478,0.126799
17.5091,0.0319105
17.5704,0.001336119
17.6317,-0.0396855
17.6931,0.0132291
17.7544,0.182649
17.8157,0.0501723
17.877,0.0446176
17.9383,0.186819
17.9996,-0.0562109
18.061,-0.0785682
18.1223,-0.0469198
18.1836,0.158526
18.2449,-0.0663978
18.3062,0.0178925
18.3676,0.210008
18.4289,0.150573
18.4902,0.105214
18.5515,0.0565681
18.6128,0.2042893
18.6742,0.168169
18.7355,0.453415
18.7968,0.322181
18.8581,0.590439
18.9194,0.5897851
18.9807,0.834109
19.0421,0.845981
19.1034,0.993456
19.1647,0.977922
19.226,1.21257
19.2873,1.1297
19.3487,1.24147
19.41,1.12598
19.4713,0.899574
19.5326,1.01884
19.5939,1.10877
19.6552,0.811743
19.7166,0.818718
19.7779,0.520324
19.8392,0.539825
19.9005,0.503956
19.9618,0.591537
20.0232,0.543887
20.08448,0.334966
20.1458,0.404008
20.2071,0.126014
20.2684,0.009665192
20.3298,0.169544
20.3911,0.10565
20.4524,0.0853459
20.5137,0.105158
20.575,0.0105863
20.6363,0.107199
20.6977,-0.004335501
20.759,-0.0149893
20.8203,0.000584657
20.8816,0.113567
20.9429,0.05486065
21.0043,0.103979
21.0656,-0.0377342
21.1269,0.150507
21.1882,0.0333793
21.2495,0.0379653
21.3109,-0.0996236
21.3722,0.009501412
21.4335,0.120549
21.4948,0.122407
21.5561,-0.0456869
21.6174,0.0919606
21.6788,0.009308254
21.7401,0.0396893
21.8014,0.0268537
21.8627,-0.008365134
21.924,-0.126731
21.9854,0.0254418
22.0467,0.0302316
22.108,0.142846
22.1693,0.0490501
22.2306,-0.001157231
22.292,0.108544
22.3533,0.008361704
22.4146,-0.102051
22.4759,-0.002207969
22.5372,0.0891406
22.5985,0.0365782
22.6599,-0.000173065
22.7212,0.008400747
22.7825,0.0119524
22.8438,-0.0711153
22.9051,0.0421837
22.9665,0.120947
23.0278,0.0158681
23.0891,0.0429201
23.1504,0.0168317
23.2117,0.094346
23.273,-0.0536481
23.3344,0.14403
23.3957,0.126617
23.457,0.008695165
23.5183,0.0176958
23.5796,0.0442438
23.641,-0.0245082
23.7023,0.0822733
23.7636,-0.114579
23.8249,-0.0391202
23.8862,0.0504131
23.9476,-0.0352145
24.0089,-0.0442671
24.0702,0.00936646
24.1315,0.0718668
24.1928,-0.089405
24.2541,0.0867652
24.3155,-0.0789813
24.3768,-0.0311781
24.4381,-0.13423
24.4994,0.0754035
24.5607,0.0890431
24.6221,0.0612021
24.6834,0.227992
24.7447,0.136287
24.806,0.161088
24.8673,0.106214
24.9287,0.114026
24.99,0.24008
25.0513,0.0173619
25.1126,0.10733
25.1739,0.133248
25.2352,0.143727
25.2966,0.230781
25.3579,0.0610773
25.4192,0.101629
25.4805,0.0208389
25.5418,-0.0788621
25.6032,0.116762
25.6645,0.0469472
25.7258,0.124888
25.7871,-0.0226794
25.8484,0.166745
25.9097,-0.08288061
25.9711,-0.0875284
26.0324,0.0538434
26.0937,0.204082
26.155,-0.0934101
26.2163,0.251
26.2777,0.0848576
26.339,0.0332187
26.4003,0.119654
26.4616,-0.144419
26.5229,-0.0732362
26.5843,-0.0313813
26.6456,0.19816
26.7069,-0.0148211
26.7682,-0.0453243
26.8295,0.000773489
26.8908,0.120855
26.9522,0.07272
27.0135,0.10116
27.0748,0.0915919
27.1361,-0.145221
27.1974,0.22232
27.2588,-0.003704036
27.3201,0.0100419
27.3814,0.0795296
27.4427,0.0901757
27.504,0.125314
27.5654,0.0547348
27.6267,0.0694116
27.688,-0.0546142
27.7493,0.03856
27.8106,0.0850454
27.8719,0.162967
27.9333,0.08482472
27.9946,0.0815214
28.0559,0.109654
28.1172,-0.04605435
28.1785,0.248076
28.2399,0.167392
28.3012,0.178909
28.3625,0.395473
28.4238,0.218125
28.4851,0.134714
28.5464,0.353573
28.6078,0.296576
28.6691,0.53664
28.7304,0.427932
28.7917,0.270799
28.853,0.669408
28.9144,0.503967
28.9757,0.493226
29.037,0.814268
29.0983,0.560844
29.1596,0.764203
29.221,0.886151
29.2823,0.749605
29.3436,0.863245
29.4049,0.952765
29.4662,0.879278
29.5275,0.92924
29.5889,1.18946
29.6502,1.36653
29.7115,1.30594
29.7728,1.45213
29.8341,1.73566
29.8955,1.42042
29.9568,1.55502
30.0181,1.83564
30.0794,1.79527
30.1407,2.31237
30.2021,2.3991
30.2634,2.67178
30.3247,2.86305
30.386,3.14826
30.4473,3.62116
30.5086,3.67063
30.57,4.50847
30.6313,5.067
30.6926,5.36876
30.7539,6.17765
30.8152,6.11174
30.8766,7.29427
30.9379,7.9874
30.9992,8.64079
31.0605,8.98534
31.1218,9.63042
31.1831,9.56735
31.2445,9.02878
31.3058,8.69351
31.3671,8.50253
31.4284,8.36729
31.4897,7.88328
31.5511,7.88036
31.6124,7.737
31.6737,7.27091
31.735,7.1557
31.7963,7.28547
31.8577,7.18278
31.919,7.1289
31.9803,7.13943
32.0416,6.97654
32.1029,7.09161
32.1642,7.97597
32.2256,8.23551
32.2869,9.15497
32.3482,10.3003
32.4095,12.3729
32.4708,14.1176
32.5322,16.7166
32.5935,18.5311
32.6548,18.9256
32.7161,18.0807
32.7774,15.3767
32.8388,13.0304
32.9001,10.3389
32.9614,8.62671
33.0227,7.26194
33.084,6.48763
33.1453,5.65795
33.2067,5.17394
33.268,4.54776
33.3293,3.94434
33.3906,4.15707
33.4519,3.72937
33.5133,3.48935
33.5746,3.41792
33.6359,3.37619
33.6972,3.29471
33.7585,3.4912
33.8199,3.20177
33.8812,3.29272
33.9425,3.23109
34.0038,3.39534
34.0651,3.40005
34.1264,3.2296
34.1878,3.69128
34.2491,3.59933
34.3104,3.83916
34.3717,3.96633
34.433,4.27251
34.4944,4.06498
34.5557,4.17535
34.617,4.43695
34.6783,4.30984
34.7396,4.19334
34.8009,4.78362
34.8623,4.52686
34.9236,4.75814
34.9849,4.57988
35.0462,4.42438
35.1075,4.32982
35.1689,4.44379
35.2302,4.21072
35.2915,4.6011
35.3528,4.76771
35.4141,4.77304
35.4755,4.7803
35.5368,5.06552
35.5981,5.17558
35.6594,5.85875
35.7207,5.61675
35.782,6.18049
35.8434,6.71491
35.9047,7.12278
35.966,7.42493
36.0273,8.21338
36.0886,8.81624
36.15,9.24916
36.2113,10.0694
36.2726,10.3864
36.3339,11.2504
36.3952,11.599
36.4566,12.3002
36.5179,12.4599
36.5792,12.5331
36.6405,13.0005
36.7018,12.725
36.7631,12.3351
36.8245,12.1277
36.8858,11.7261
36.9471,11.4027
37.0084,10.2063
37.0697,10.0239
37.1311,9.6838
37.1924,9.39245
37.2537,8.93809
37.315,8.65232
37.3763,8.16362
37.4376,7.45287
37.499,7.32218
37.5603,7.3948
37.6216,7.03357
37.6829,6.46767
37.7442,6.38807
37.8056,6.54302
37.8669,6.16692
37.9282,6.22155
37.9895,6.19999
38.0508,6.17861
38.1122,6.3154
38.1735,6.45585
38.2348,6.99926
38.2961,7.02724
38.3574,7.13873
38.4187,7.80944
38.4801,8.28763
38.5414,8.9344
38.6027,9.03102
38.664,10.2337
38.7253,10.2109
38.7867,10.5859
38.848,11.2804
38.9093,11.6349
38.9706,11.7309
39.0319,12.7056
39.0933,13.1561
39.1546,14.1398
39.2159,14.8616
39.2772,15.6859
39.3385,16.606
39.3998,16.8977
39.4612,18.1063
39.5225,18.2283
39.5838,18.7445
39.6451,18.6013
39.7064,18.0137
39.7678,16.0774
39.8291,15.4746
39.8904,13.8616
39.9517,12.497
40.013,11.0858
40.0743,9.65214
40.1357,8.45307
40.197,7.46251
40.2583,6.34019
40.3196,5.46111
40.3809,5.16903
40.4423,4.32331
40.5036,3.95174
40.5649,3.49008
40.6262,3.15013
40.6875,2.63849
40.7489,2.30238
40.8102,2.12966
40.8715,1.81302
40.9328,1.98616
40.9941,1.54837
41.0554,1.33125
41.1168,1.38862
41.1781,1.36805
41.2394,0.924063
41.3007,0.985466
41.362,0.654695
41.4234,1.0064
41.4847,0.764544
41.546,0.883984
41.6073,0.586943
41.6686,0.859534
41.73,0.583699
41.7913,0.502495
41.8526,0.537796
41.9139,0.484742
41.9752,0.279096
42.0365,0.165651
42.0979,0.291975
42.1592,0.175429
42.2205,0.335112
42.2818,0.340466
42.3431,0.0960072
42.4045,0.185068
42.4658,0.0486197
42.5271,0.0206563
42.5884,0.233781
42.6497,-0.01644914
42.711,0.238715
42.7724,-0.136143
42.8337,0.228768
42.895,-0.102315
42.9563,0.106719
43.0176,0.137119
43.079,0.263192
43.1403,0.0769512
43.2016,0.375271
43.2629,0.402944
43.3242,0.373512
43.3856,0.356418
43.4469,0.369025
43.5082,0.532859
43.5695,0.54063
43.6308,0.574628
43.6921,0.706035
43.7535,0.868878
43.8148,0.905171
43.8761,1.21075
43.9374,1.87589
43.9987,1.77906
44.0601,2.60776
44.1214,2.92103
44.1827,3.45496
44.244,4.36409
44.3053,5.40361
44.3667,6.00755
44.428,7.09258
44.4893,9.02675
44.5506,10.2701
44.6119,11.1161
44.6732,12.4484
44.7346,13.2948
44.7959,13.782
44.8572,14.4847
44.9185,14.3316
44.9798,14.7273
45.0412,14.7621
45.1025,14.8666
45.1638,14.9868
45.2251,14.7357
45.2864,14.6532
45.3478,14.8418
45.4091,14.2614
45.4704,14.0614
45.5317,13.2609
45.593,13.1428
45.6543,12.551
45.7157,11.8101
45.777,11.8367
45.8383,11.3132
45.8996,11.0433
45.9609,10.9264
46.0223,10.8322
46.0836,10.6619
46.1449,10.5282
46.2062,10.2731
46.2675,10.3724
46.3288,10.2132
46.3902,10.0594
46.4515,9.82766
46.5128,9.13604
46.5741,8.97758
46.6354,8.91133
46.6968,8.06228
46.7581,8.16133
46.8194,7.07653
46.8807,7.19332
46.942,6.62973
47.0034,6.74862
47.0647,6.68541
47.126,6.21439
47.1873,6.3078
47.2486,6.35278
47.3099,6.22608
47.3713,6.04053
47.4326,5.9385
47.4939,5.93388
47.5552,5.55966
47.6165,4.91131
47.6779,4.42982
47.7392,3.87213
47.8005,3.34413
47.8618,2.77466
47.9231,2.34079
47.9845,1.83766
48.0458,1.45971
48.1071,1.23821
48.1684,0.959594
48.2297,0.761028
48.291,0.618204
48.3524,0.404386
48.4137,0.447698
48.475,0.496405
48.5363,0.225853
48.5976,0.497155
48.659,0.150587
48.7203,0.191358
48.7816,0.0795369
48.8429,-0.118903
48.9042,-0.103615
48.9655,0.045513
49.0269,0.06982755
49.0882,-0.051505
49.1495,0.0304736
49.2108,0.0674995
49.2721,-0.044594
49.3335,0.188985
49.3948,-0.0147501
49.4561,0.10809
49.5174,-0.003258802
49.5787,-0.102269
49.6401,0.196481
49.7014,0.335694
49.7627,0.57058
49.824,0.317804
49.8853,0.315215
49.9466,0.597534
50.008,0.749832
50.0693,0.976968
50.1306,0.791095
50.1919,1.17312
50.2532,1.35567
50.3146,1.49501
50.3759,1.50086
50.4372,1.97737
50.4985,1.93151
50.5598,1.98652
50.6212,2.00006
50.6825,1.92697
50.7438,1.79504
50.8051,1.56608
50.8664,1.54216
50.9277,1.37955
50.9891,1.24836
51.0504,1.35174
51.1117,1.03343
51.173,1.0851
51.2343,0.902579
51.2957,1.11781
51.357,1.0624
51.4183,0.920369
51.4796,0.771579
51.5409,0.765336
51.6022,0.698515
51.6636,0.284659
51.7249,0.249461
51.7862,0.07729583
51.8475,0.0251089
51.9088,0.0738025
51.9702,0.0011546
52.0315,-0.0435294
52.0928,-0.159208
52.1541,-0.010811
52.2154,0.005827459
52.2768,0.05737432
52.3381,-0.0454065
52.3994,0.254777
52.4607,0.0933403
52.522,0.284521
52.5833,-0.0171681
52.6447,0.132718
52.706,0.30536
52.7673,0.172632
52.8286,0.17898
52.8899,0.109125
52.9513,0.287719
53.0126,-0.0630134
53.0739,0.0395649
53.1352,0.104135
53.1965,0.247016
53.2579,-0.009221922
53.3192,-0.0118016
53.3805,0.119485
53.4418,0.0476381
53.5031,0.262044
53.5644,0.0547619
53.6258,0.156693
53.6871,0.0747832
53.7484,-0.151038
53.8097,0.01029274
53.871,-0.010482
53.9324,0.126915
53.9937,0.0197075
54.055,0.0151162
54.1163,-0.216719
54.1776,0.0603117
54.2389,-0.101707
54.3003,0.0583919
54.3616,-0.0625729
54.4229,0.144774
54.4842,-0.0105411
54.5455,0.158983
54.6069,-0.0619314
54.6682,0.210396
54.7295,0.0749231
54.7908,0.0638805
54.8521,0.009243227
54.9135,-0.118125
54.9748,-0.120306
55.0361,0.242282
55.0974,0.01304205
55.1587,-0.0389282
55.22,0.0638016
55.2814,0.0816482
55.3427,0.070167
55.404,-0.0539752
55.4653,0.09984655
55.5266,0.189618
55.588,-0.0172986
55.6493,-0.168474
55.7106,0.13887
55.7719,0.217234
55.8332,0.06488135
55.8946,-0.0299936
55.9559,0.120109
56.0172,0.216579
56.0785,0.229901
56.1398,0.0767433
56.2011,0.317869
56.2625,0.283139
56.3238,0.234706
56.3851,0.302779
56.4464,0.160968
56.5077,0.352677
56.5691,0.273739
56.6304,0.297418
56.6917,0.258783
56.753,0.241167
56.8143,0.426862
56.8757,0.392258
56.937,0.411659
56.9983,0.137844
57.0596,0.293034
57.1209,0.207091
57.1822,0.347029
57.2436,0.167708
57.3049,0.15524
57.3662,-0.03065254
57.4275,0.0128076
57.4888,0.193607
57.5502,0.006536334
57.6115,0.0470828
57.6728,0.155524
57.7341,0.0141508
57.7954,-0.229466
57.8567,0.226755
57.9181,-0.139753
57.9794,0.000569128
58.0407,-0.0273249
58.102,0.04739787
58.1633,0.113626
58.2247,0.306777
58.286,0.32303
58.3473,0.372456
58.4086,0.293596
58.4699,0.734019
58.5313,0.645115
58.5926,0.67098
58.6539,0.627586
58.7152,0.841324
58.7765,0.836497
58.8378,0.772829
58.8992,1.19025
58.9605,1.04709
59.0218,1.076
59.0831,1.21099
59.1444,1.36353
59.2058,1.24542
59.2671,1.84278
59.3284,2.02887
59.3897,2.09187
59.451,2.49014
59.5124,2.7688
59.5737,3.0459
59.635,3.52111
59.6963,3.64929
59.7576,3.92869
59.8189,3.89925
59.8803,4.09396
59.9416,3.89822
60.0029,4.02907
60.0642,3.94655
60.1255,3.43193
60.1869,3.63104
60.2482,3.20013
60.3095,2.87183
60.3708,3.02636
60.4321,2.92066
60.4934,2.7075
60.5548,2.5553
60.6161,2.67064
60.6774,2.47019
60.7387,2.12931
60.8,2.47785
60.8614,2.36651
60.9227,2.19979
60.984,2.20688
61.0453,2.31484
61.1066,2.52716
61.168,2.31779
61.2293,2.25618
61.2906,2.25377
61.3519,2.15086
61.4132,2.43356
61.4745,2.30151
61.5359,2.48561
61.5972,2.46505
61.6585,2.37522
61.7198,2.3585
61.7811,2.48779
61.8425,2.55304
61.9038,2.67576
61.9651,2.8577
62.0264,2.88531
62.0877,2.80894
62.1491,2.86123
62.2104,2.92933
62.2717,2.85005
62.333,2.64769
62.3943,2.92641
62.4556,2.59422
62.517,2.46359
62.5783,2.44253
62.6396,2.35916
62.7009,2.10409
62.7622,1.98463
62.8236,2.07369
62.8849,1.91815
62.9462,1.66383
63.0075,1.85761
63.0688,1.86582
63.1301,1.5756
63.1915,1.82202
63.2528,1.88114
63.3141,1.82064
63.3754,2.11797
63.4367,2.20542
63.4981,2.38507
63.5594,2.4972
63.6207,2.75361
63.682,2.91645
63.7433,3.01004
63.8047,3.2427
63.866,3.61097
63.9273,3.58185
63.9886,3.5807
64.0499,3.48424
64.1112,3.46957
64.1726,3.36828
64.2339,3.08489
64.2952,2.96834
64.3565,3.50997
64.4178,3.0136
64.4792,3.21011
64.5405,2.88598
64.6018,3.13669
64.6631,2.88237
64.7244,3.05186
64.7858,3.28403
64.8471,3.31326
64.9084,3.34267
64.9697,3.79242
65.031,3.70936
65.0923,4.06051
65.1537,4.10456
65.215,4.38317
65.2763,4.76093
65.3376,5.092
65.3989,5.31214
65.4603,5.06719
65.5216,5.73041
65.5829,5.88167
65.6442,6.17026
65.7055,6.56148
65.7668,7.0501
65.8282,7.56147
65.8895,7.85081
65.9508,8.40596
66.0121,9.37797
66.0734,10.2703
66.1348,11.9319
66.1961,13.2378
66.2574,14.3668
66.3187,15.7078
66.38,16.9483
66.4414,17.8452
66.5027,17.9437
66.564,18.7958
66.6253,18.9364
66.6866,19.9538
66.7479,20.3187
66.8093,21.524
66.8706,22.4465
66.9319,23.8554
66.9932,25.1012
67.0545,26.3906
67.1159,26.9093
67.1772,27.5029
67.2385,27.7044
67.2998,27.4285
67.3611,26.4619
67.4225,25.0198
67.4838,23.2828
67.5451,20.9035
67.6064,19.1165
67.6677,16.6595
67.729,14.4839
67.7904,12.2877
67.8517,10.5101
67.913,8.99133
67.9743,7.51443
68.0356,6.42313
68.097,5.53862
68.1583,4.66471
68.2196,3.98196
68.2809,3.12925
68.3422,2.84097
68.4036,2.41225
68.4649,2.19899
68.5262,1.79495
68.5875,1.4831
68.6488,1.24784
68.7101,1.33394
68.7715,0.75529
68.8328,0.937247
68.8941,0.652377
68.9554,0.756581
69.0167,0.475555
69.0781,0.448188
69.1394,0.398437
69.2007,0.301998
69.262,0.132827
69.3233,-0.0899759
69.3846,0.17699
69.446,0.267059
69.5073,0.204537
69.5686,0.0623393
69.6299,0.0644252
69.6912,-0.0600389
69.7526,0.029225
69.8139,-0.0202139
69.8752,0.0885195
69.9365,-0.141103
69.9978,-0.105632