File: Carboncapture/XRD data/Pt_al2o3_200c.csv
2 theta,Intensity
5.0001,-0.0459004
5.06142,-0.0857663
5.12274,-0.0454384
5.18406,-0.0195434
5.24537,-0.0177703
5.30669,0.0432141
5.36801,-0.006728941
5.42933,-0.006325353
5.49065,0.0806991
5.55197,-0.0300096
5.61329,0.03828479
5.6746,-0.0217094
5.73592,0.0851466
5.79724,-0.007466516
5.85856,-0.0269794
5.91988,0.0300803
5.9812,0.0109346
6.04252,0.0197504
6.10384,0.0513191
6.16515,0.0778632
6.22647,0.0229936
6.28779,0.0117105
6.34911,-0.0202225
6.41043,0.053931
6.47175,0.102226
6.53307,0.081261
6.59438,0.0136042
6.6557,0.104117
6.71702,-0.0395614
6.77834,-0.0615286
6.83966,0.02779904
6.90098,0.0287686
6.9623,0.0368662
7.02361,0.0434112
7.08493,-0.0279851
7.14625,0.001496636
7.20757,-0.0278658
7.26889,0.0811444
7.33021,-0.0435186
7.39153,-0.003067414
7.45284,0.07402568
7.51416,0.0627607
7.57548,0.0117488
7.6368,0.02168437
7.69812,0.0127063
7.75944,-0.001296444
7.82076,-0.0359489
7.88208,0.052846
7.94339,0.02203298
8.00471,-0.0537354
8.06603,0.0383383
8.12735,0.0837205
8.18867,0.0511614
8.24999,-0.026353
8.31131,-0.0394477
8.37262,0.0188217
8.43394,0.0130387
8.49526,-0.0238108
8.55658,0.04369
8.6179,-0.0344589
8.67922,0.113061
8.74054,0.0774989
8.80185,0.0195515
8.86317,-0.0521012
8.92449,0.0500408
8.98581,-0.0490224
9.04713,0.056959
9.10845,0.0433324
9.16977,0.003847692
9.23108,0.02010217
9.2924,0.0695264
9.35372,0.0427453
9.41504,0.0404533
9.47636,-0.0675578
9.53768,-3.80E-05
9.599,0.0346792
9.66032,0.137288
9.72163,-0.0463772
9.78295,0.0062519
9.84427,-0.008643688
9.90559,-0.059814
9.96691,0.06788535
10.0282,0.06556
10.0895,0.141543
10.1509,0.0961823
10.2122,0.255866
10.2735,0.0633029
10.3348,0.0480066
10.3961,0.0267751
10.4575,0.0525172
10.5188,0.0124707
10.5801,0.0611495
10.6414,0.0579285
10.7027,0.0496829
10.7641,0.03988467
10.8254,0.00943675
10.8867,-0.07464701
10.948,0.0823765
11.0093,0.0538197
11.0706,0.145238
11.132,0.172604
11.1933,0.0664733
11.2546,0.127193
11.3159,0.137748
11.3772,0.138071
11.4386,0.168091
11.4999,0.114961
11.5612,0.29639
11.6225,0.333906
11.6838,0.213619
11.7451,0.0865707
11.8065,0.409359
11.8678,0.369484
11.9291,0.246459
11.9904,0.272923
12.0517,0.304779
12.1131,0.272583
12.1744,0.204112
12.2357,0.326797
12.297,0.364596
12.3583,0.341814
12.4197,0.232411
12.481,0.390552
12.5423,0.345752
12.6036,0.462594
12.6649,0.461564
12.7262,0.564885
12.7876,0.553805
12.8489,0.612354
12.9102,0.568655
12.9715,0.698752
13.0328,0.603337
13.0942,0.699079
13.1555,0.567573
13.2168,0.58382
13.2781,0.747821
13.3394,0.542213
13.4008,0.640609
13.4621,0.622868
13.5234,0.636562
13.5847,0.593147
13.646,0.628041
13.7073,0.803743
13.7687,0.686226
13.83,0.614032
13.8913,0.792021
13.9526,0.680263
14.0139,0.747509
14.0753,0.709035
14.1366,0.759287
14.1979,0.802777
14.2592,0.742285
14.3205,0.584754
14.3818,0.658309
14.4432,0.589687
14.5045,0.786874
14.5658,0.501605
14.6271,0.744297
14.6884,0.605229
14.7498,0.605233
14.8111,0.636671
14.8724,0.74989
14.9337,0.635861
14.995,0.624447
15.0564,0.632314
15.1177,0.751475
15.179,0.450681
15.2403,0.582363
15.3016,0.511103
15.3629,0.552874
15.4243,0.686842
15.4856,0.73766
15.5469,0.55776
15.6082,0.548182
15.6695,0.629065
15.7309,0.588604
15.7922,0.807007
15.8535,0.858928
15.9148,0.66624
15.9761,0.977208
16.0375,0.918568
16.0988,0.872264
16.1601,0.874755
16.2214,0.832291
16.2827,0.572996
16.344,0.558677
16.4054,0.721625
16.4667,0.768436
16.528,0.594946
16.5893,0.579625
16.6506,0.543654
16.712,0.544325
16.7733,0.300388
16.8346,0.278857
16.8959,0.502302
16.9572,0.510652
17.0185,0.373352
17.0799,0.408111
17.1412,0.39097
17.2025,0.420888
17.2638,0.358976
17.3251,0.52815
17.3865,0.591604
17.4478,0.45559
17.5091,0.403092
17.5704,0.460154
17.6317,0.414968
17.6931,0.238021
17.7544,0.424105
17.8157,0.41072
17.877,0.385366
17.9383,0.422695
17.9996,0.880347
18.061,1.02742
18.1223,1.3396
18.1836,1.51135
18.2449,1.16244
18.3062,0.87275
18.3676,0.861017
18.4289,0.559538
18.4902,0.798173
18.5515,0.757477
18.6128,0.708284
18.6742,0.747817
18.7355,0.731978
18.7968,0.813544
18.8581,0.778975
18.9194,0.836603
18.9807,0.781568
19.0421,0.860397
19.1034,1.03316
19.1647,1.12277
19.226,1.12403
19.2873,1.17234
19.3487,1.32847
19.41,1.26084
19.4713,1.16387
19.5326,1.12264
19.5939,1.05728
19.6552,1.20739
19.7166,0.822964
19.7779,0.702607
19.8392,0.707434
19.9005,0.702028
19.9618,0.549235
20.0232,0.703918
20.08448,0.869202
20.1458,0.939183
20.2071,0.778444
20.2684,0.722056
20.3298,0.617241
20.3911,0.510873
20.4524,0.269272
20.5137,0.130285
20.575,0.156412
20.6363,0.130639
20.6977,0.217898
20.759,0.173395
20.8203,0.0283817
20.8816,0.156121
20.9429,-0.0961637
21.0043,0.0493043
21.0656,0.212317
21.1269,0.194958
21.1882,-0.002773452
21.2495,-0.0718488
21.3109,-0.0730323
21.3722,-0.117435
21.4335,0.039735
21.4948,0.0842413
21.5561,-0.02731884
21.6174,0.116513
21.6788,0.0209451
21.7401,-0.0449254
21.8014,0.11161
21.8627,0.0391624
21.924,-0.0140045
21.9854,0.240304
22.0467,-0.138885
22.108,-0.146278
22.1693,0.03227703
22.2306,0.0287235
22.292,0.179867
22.3533,-0.02818
22.4146,0.057359
22.4759,-0.134696
22.5372,0.008345448
22.5985,0.004791281
22.6599,0.0726013
22.7212,0.201359
22.7825,0.104605
22.8438,-0.0197421
22.9051,-0.0866144
22.9665,0.0332201
23.0278,0.135877
23.0891,0.105037
23.1504,0.0969501
23.2117,-0.008175473
23.273,0.00320201
23.3344,-0.0668341
23.3957,-0.0439506
23.457,-0.027057
23.5183,0.03250655
23.5796,-0.157746
23.641,0.0462817
23.7023,-0.0238123
23.7636,0.0503746
23.8249,0.0205784
23.8862,-0.0767425
23.9476,0.0257729
24.0089,0.0486109
24.0702,-0.0898259
24.1315,0.0372241
24.1928,0.195708
24.2541,0.0679168
24.3155,0.06183708
24.3768,-0.037809
24.4381,-0.03310479
24.4994,0.101991
24.5607,-0.0873817
24.6221,-0.0960156
24.6834,0.181993
24.7447,0.102545
24.806,0.0545317
24.8673,0.164688
24.9287,0.0857914
24.99,0.0539536
25.0513,0.017091
25.1126,0.06721765
25.1739,-0.0456666
25.2352,0.131563
25.2966,0.0468242
25.3579,0.10463
25.4192,0.041091
25.4805,-0.0326808
25.5418,-0.03856058
25.6032,0.007826551
25.6645,-0.060186
25.7258,0.165388
25.7871,-0.0446188
25.8484,-0.0669417
25.9097,-0.002275391
25.9711,0.06431059
26.0324,-0.106767
26.0937,0.0645899
26.155,0.0868248
26.2163,0.215146
26.2777,-0.0209322
26.339,0.003589719
26.4003,0.165448
26.4616,0.152143
26.5229,0.0227015
26.5843,0.17643
26.6456,0.156731
26.7069,0.274368
26.7682,0.300176
26.8295,0.173389
26.8908,0.350605
26.9522,0.198143
27.0135,0.351421
27.0748,0.199326
27.1361,0.243596
27.1974,0.281105
27.2588,0.268451
27.3201,0.549382
27.3814,0.347859
27.4427,0.3427
27.504,0.615502
27.5654,0.449251
27.6267,0.444643
27.688,0.546121
27.7493,0.55056
27.8106,0.560391
27.8719,0.490545
27.9333,0.622271
27.9946,0.558
28.0559,0.703982
28.1172,0.662648
28.1785,0.609345
28.2399,0.87567
28.3012,0.437317
28.3625,0.634564
28.4238,0.639287
28.4851,0.612944
28.5464,0.706575
28.6078,0.671918
28.6691,0.597514
28.7304,0.702114
28.7917,0.938841
28.853,0.863251
28.9144,0.819096
28.9757,0.846304
29.037,0.962238
29.0983,1.06447
29.1596,1.04014
29.221,1.16531
29.2823,1.11705
29.3436,1.31723
29.4049,1.08184
29.4662,1.19558
29.5275,1.155
29.5889,1.50696
29.6502,1.42334
29.7115,1.39546
29.7728,1.4754
29.8341,1.80206
29.8955,1.96049
29.9568,2.22328
30.0181,1.94458
30.0794,2.15912
30.1407,2.34086
30.2021,2.41862
30.2634,2.75003
30.3247,2.92364
30.386,3.48285
30.4473,3.56481
30.5086,3.94556
30.57,4.19803
30.6313,4.8361
30.6926,5.20005
30.7539,5.81244
30.8152,6.37294
30.8766,7.15757
30.9379,7.741
30.9992,8.2899
31.0605,8.64106
31.1218,8.63823
31.1831,8.98802
31.2445,9.16439
31.3058,8.74198
31.3671,8.40655
31.4284,8.14249
31.4897,8.09911
31.5511,7.83889
31.6124,7.76635
31.6737,7.46831
31.735,7.3076
31.7963,6.84499
31.8577,6.57353
31.919,6.90122
31.9803,6.89749
32.0416,6.51722
32.1029,7.00518
32.1642,7.76589
32.2256,8.3688
32.2869,8.49794
32.3482,9.92761
32.4095,11.3488
32.4708,13.8448
32.5322,15.5597
32.5935,17.6637
32.6548,18.0874
32.7161,17.4227
32.7774,15.2147
32.8388,12.7813
32.9001,10.7439
32.9614,8.48439
33.0227,7.2633
33.084,6.44864
33.1453,5.79215
33.2067,5.21745
33.268,4.60126
33.3293,4.23352
33.3906,4.00137
33.4519,3.77289
33.5133,3.82063
33.5746,3.55952
33.6359,3.37499
33.6972,3.38162
33.7585,3.2096
33.8199,3.27389
33.8812,3.49287
33.9425,3.42731
34.0038,3.44006
34.0651,3.66827
34.1264,3.30812
34.1878,3.75372
34.2491,3.61269
34.3104,3.66802
34.3717,4.22181
34.433,3.86952
34.4944,4.1702
34.5557,4.30613
34.617,4.1853
34.6783,4.43965
34.7396,4.51711
34.8009,4.63294
34.8623,4.37742
34.9236,4.49189
34.9849,4.61348
35.0462,4.4922
35.1075,4.23395
35.1689,4.58873
35.2302,4.52702
35.2915,4.51064
35.3528,4.66111
35.4141,4.73711
35.4755,4.51642
35.5368,4.98863
35.5981,5.28566
35.6594,5.25476
35.7207,5.38897
35.782,5.74559
35.8434,6.08676
35.9047,6.78402
35.966,7.37209
36.0273,8.03326
36.0886,8.4151
36.15,9.14782
36.2113,9.71579
36.2726,10.3846
36.3339,11.2134
36.3952,11.7281
36.4566,12.1666
36.5179,12.3275
36.5792,12.8566
36.6405,12.544
36.7018,12.6724
36.7631,11.9139
36.8245,11.9403
36.8858,11.5971
36.9471,11.1447
37.0084,10.6318
37.0697,10.3516
37.1311,9.72093
37.1924,9.32136
37.2537,8.67891
37.315,8.68421
37.3763,8.37199
37.4376,8.47315
37.499,8.01372
37.5603,7.55448
37.6216,7.51557
37.6829,7.26676
37.7442,7.13967
37.8056,6.65339
37.8669,6.67424
37.9282,6.74388
37.9895,6.71127
38.0508,7.24482
38.1122,6.8966
38.1735,7.33851
38.2348,7.36566
38.2961,7.61175
38.3574,7.88754
38.4187,8.17219
38.4801,8.76084
38.5414,8.97294
38.6027,9.51682
38.664,9.89249
38.7253,10.3569
38.7867,10.5333
38.848,10.4893
38.9093,10.5862
38.9706,10.8343
39.0319,10.909
39.0933,10.8971
39.1546,10.8367
39.2159,10.9171
39.2772,11.1974
39.3385,10.7504
39.3998,11.0832
39.4612,11.2008
39.5225,10.7127
39.5838,11.1258
39.6451,10.7909
39.7064,10.694
39.7678,9.41324
39.8291,9.09621
39.8904,8.16304
39.9517,7.91756
40.013,7.39448
40.0743,7.00354
40.1357,6.24819
40.197,5.69441
40.2583,4.97242
40.3196,4.77665
40.3809,4.3519
40.4423,4.04018
40.5036,3.79808
40.5649,3.54055
40.6262,2.90125
40.6875,2.81596
40.7489,2.5503
40.8102,2.51398
40.8715,2.18619
40.9328,2.17802
40.9941,1.92177
41.0554,1.53376
41.1168,1.63204
41.1781,1.56384
41.2394,1.45416
41.3007,1.27001
41.362,1.12424
41.4234,1.08282
41.4847,0.916577
41.546,1.08733
41.6073,0.862427
41.6686,0.7766
41.73,0.833318
41.7913,0.530844
41.8526,0.414318
41.9139,0.74242
41.9752,0.612372
42.0365,0.282855
42.0979,0.161855
42.1592,0.268469
42.2205,0.279781
42.2818,0.296484
42.3431,0.294274
42.4045,0.229748
42.4658,0.0976966
42.5271,0.0491623
42.5884,0.118867
42.6497,0.190492
42.711,0.112994
42.7724,0.403736
42.8337,-0.117838
42.895,0.292283
42.9563,0.164393
43.0176,0.093978
43.079,-0.0144474
43.1403,0.123838
43.2016,0.201544
43.2629,0.274225
43.3242,0.432159
43.3856,0.30729
43.4469,0.25205
43.5082,0.36366
43.5695,0.343509
43.6308,0.425972
43.6921,0.517299
43.7535,0.667837
43.8148,0.962657
43.8761,1.22294
43.9374,1.55111
43.9987,1.85169
44.0601,2.25488
44.1214,2.52805
44.1827,3.24585
44.244,3.94994
44.3053,4.9806
44.3667,5.97672
44.428,7.33762
44.4893,8.64314
44.5506,10.2093
44.6119,11.1575
44.6732,12.3229
44.7346,12.9677
44.7959,13.8506
44.8572,14.3568
44.9185,14.5421
44.9798,14.9168
45.0412,14.6945
45.1025,14.7918
45.1638,14.5941
45.2251,14.973
45.2864,14.8087
45.3478,14.1515
45.4091,14.0032
45.4704,13.4644
45.5317,12.78
45.593,12.0853
45.6543,11.4447
45.7157,10.5508
45.777,9.70736
45.8383,8.72526
45.8996,8.54889
45.9609,8.06715
46.0223,7.87726
46.0836,7.36637
46.1449,7.78622
46.2062,7.60035
46.2675,7.68203
46.3288,7.48264
46.3902,7.62892
46.4515,7.41601
46.5128,7.34565
46.5741,7.66609
46.6354,7.21588
46.6968,7.08878
46.7581,6.64762
46.8194,6.52782
46.8807,6.33877
46.942,6.32871
47.0034,5.94558
47.0647,5.77791
47.126,5.9073
47.1873,5.87541
47.2486,5.74475
47.3099,5.8851
47.3713,6.04647
47.4326,6.05004
47.4939,5.75171
47.5552,5.22092
47.6165,4.99588
47.6779,4.39948
47.7392,3.71647
47.8005,3.22114
47.8618,2.78329
47.9231,2.36819
47.9845,1.79528
48.0458,1.36492
48.1071,1.11009
48.1684,1.11587
48.2297,0.923906
48.291,0.60192
48.3524,0.438104
48.4137,0.484541
48.475,0.499911
48.5363,0.36616
48.5976,0.215231
48.659,0.300597
48.7203,0.266355
48.7816,0.331255
48.8429,0.168908
48.9042,0.105702
48.9655,0.226708
49.0269,0.0788009
49.0882,0.344271
49.1495,-0.0289633
49.2108,0.122291
49.2721,-0.087382
49.3335,-0.18576
49.3948,0.0525138
49.4561,-0.106598
49.5174,-0.04791287
49.5787,0.0248445
49.6401,0.0196606
49.7014,0.207369
49.7627,0.0636628
49.824,0.211807
49.8853,0.396594
49.9466,0.171842
50.008,0.369148
50.0693,0.408652
50.1306,0.741743
50.1919,0.981267
50.2532,1.12028
50.3146,1.43656
50.3759,1.33462
50.4372,1.50544
50.4985,1.75629
50.5598,1.76254
50.6212,1.87315
50.6825,1.80685
50.7438,1.70601
50.8051,1.44216
50.8664,1.31565
50.9277,1.10772
50.9891,1.15172
51.0504,1.17853
51.1117,0.988521
51.173,0.649385
51.2343,0.791336
51.2957,0.619234
51.357,0.598358
51.4183,0.83461
51.4796,0.683892
51.5409,0.429192
51.6022,0.282313
51.6636,0.18423
51.7249,0.237372
51.7862,0.188267
51.8475,0.0855261
51.9088,-0.0309201
51.9702,0.158373
52.0315,-0.018121
52.0928,0.0336972
52.1541,0.0422963
52.2154,0.150037
52.2768,-0.04238532
52.3381,-0.13393
52.3994,0.0906814
52.4607,0.12624
52.522,0.0543436
52.5833,0.460061
52.6447,0.29131
52.706,0.259894
52.7673,0.291163
52.8286,0.135115
52.8899,0.182376
52.9513,0.139542
53.0126,0.185434
53.0739,0.0804675
53.1352,-0.0191069
53.1965,0.28428
53.2579,0.103476
53.3192,0.0513272
53.3805,0.0132511
53.4418,0.107303
53.5031,-0.100545
53.5644,0.172271
53.6258,0.131034
53.6871,0.022273
53.7484,0.0109174
53.8097,0.1212732
53.871,0.261326
53.9324,0.106424
53.9937,0.139206
54.055,-0.0170648
54.1163,0.0472944
54.1776,0.0961331
54.2389,0.363905
54.3003,0.152695
54.3616,0.0944454
54.4229,0.0901992
54.4842,0.05141425
54.5455,0.0301741
54.6069,-0.013452
54.6682,0.0750501
54.7295,-0.0619588
54.7908,0.0790652
54.8521,-0.121598
54.9135,-0.0147865
54.9748,0.0817922
55.0361,0.187235
55.0974,0.0949449
55.1587,0.0809633
55.22,0.19911
55.2814,0.0795927
55.3427,-0.0640464
55.404,0.167498
55.4653,-0.0191766
55.5266,0.006137908
55.588,0.158372
55.6493,0.0816233
55.7106,0.0710302
55.7719,0.140482
55.8332,0.182339
55.8946,0.0143111
55.9559,0.299591
56.0172,0.156236
56.0785,0.183203
56.1398,0.186048
56.2011,0.0727569
56.2625,0.254789
56.3238,0.555059
56.3851,0.279125
56.4464,0.395735
56.5077,0.274682
56.5691,0.336104
56.6304,0.203265
56.6917,0.440401
56.753,0.205499
56.8143,0.193002
56.8757,0.1529115
56.937,0.428977
56.9983,0.264253
57.0596,0.268116
57.1209,0.02042661
57.1822,0.325004
57.2436,0.110668
57.3049,0.30971
57.3662,0.107893
57.4275,0.340288
57.4888,0.140575
57.5502,-0.04506498
57.6115,-0.008299599
57.6728,-0.106767
57.7341,0.161925
57.7954,0.0401759
57.8567,0.0106242
57.9181,0.153131
57.9794,0.162141
58.0407,0.0168209
58.102,-0.006787959
58.1633,0.160759
58.2247,0.0576562
58.286,0.289806
58.3473,0.497835
58.4086,0.428269
58.4699,0.655762
58.5313,0.544896
58.5926,0.744978
58.6539,0.893161
58.7152,0.862708
58.7765,0.813341
58.8378,0.767629
58.8992,0.791546
58.9605,0.869466
59.0218,1.28438
59.0831,1.08141
59.1444,1.09738
59.2058,1.44513
59.2671,1.93717
59.3284,2.09431
59.3897,2.2447
59.451,2.57756
59.5124,2.91581
59.5737,3.09106
59.635,3.48349
59.6963,3.81015
59.7576,4.07274
59.8189,4.19316
59.8803,4.0603
59.9416,4.3599
60.0029,4.1649
60.0642,3.9753
60.1255,3.85184
60.1869,3.62962
60.2482,3.23743
60.3095,3.29161
60.3708,3.20015
60.4321,2.92136
60.4934,2.74866
60.5548,2.70809
60.6161,2.66944
60.6774,2.31674
60.7387,2.45901
60.8,2.34626
60.8614,2.54619
60.9227,2.51714
60.984,2.35633
61.0453,2.29639
61.1066,2.32865
61.168,2.42013
61.2293,2.29304
61.2906,2.51161
61.3519,2.32412
61.4132,2.14723
61.4745,2.31949
61.5359,2.28359
61.5972,2.3642
61.6585,2.47277
61.7198,2.56763
61.7811,2.44045
61.8425,2.57735
61.9038,2.45575
61.9651,2.57739
62.0264,2.87282
62.0877,2.80212
62.1491,2.92778
62.2104,2.8314
62.2717,2.76646
62.333,3.03851
62.3943,2.82115
62.4556,2.86093
62.517,2.75852
62.5783,2.6511
62.6396,2.24524
62.7009,2.1729
62.7622,2.1129
62.8236,1.96801
62.8849,1.95178
62.9462,1.84545
63.0075,1.75841
63.0688,1.77224
63.1301,1.83313
63.1915,1.93414
63.2528,2.0006
63.3141,2.01343
63.3754,2.23999
63.4367,2.48062
63.4981,2.6815
63.5594,2.90166
63.6207,2.93798
63.682,3.31476
63.7433,3.24034
63.8047,3.79283
63.866,3.83509
63.9273,3.99385
63.9886,3.72051
64.0499,3.87791
64.1112,3.92958
64.1726,3.8495
64.2339,3.72619
64.2952,3.67078
64.3565,3.54784
64.4178,3.57092
64.4792,3.49523
64.5405,3.41972
64.6018,3.67946
64.6631,3.67723
64.7244,3.47207
64.7858,3.62298
64.8471,3.5779
64.9084,4.05731
64.9697,4.00913
65.031,4.22155
65.0923,3.93588
65.1537,4.65735
65.215,4.69323
65.2763,4.96367
65.3376,5.24124
65.3989,5.37664
65.4603,5.67888
65.5216,6.07158
65.5829,6.0044
65.6442,6.3749
65.7055,6.67441
65.7668,7.10083
65.8282,7.58647
65.8895,8.51153
65.9508,9.02184
66.0121,9.87261
66.0734,10.6784
66.1348,11.9809
66.1961,13.4486
66.2574,14.9095
66.3187,16.2803
66.38,16.9099
66.4414,18.1508
66.5027,18.7132
66.564,19.4475
66.6253,19.9008
66.6866,20.2484
66.7479,20.6674
66.8093,21.7792
66.8706,22.7627
66.9319,23.6979
66.9932,24.9057
67.0545,25.7475
67.1159,27.3238
67.1772,27.4645
67.2385,27.1019
67.2998,26.3454
67.3611,25.3773
67.4225,24.1785
67.4838,22.4677
67.5451,20.337
67.6064,18.4703
67.6677,15.7531
67.729,13.7653
67.7904,11.9338
67.8517,9.89256
67.913,8.27853
67.9743,7.34525
68.0356,5.85833
68.097,5.23097
68.1583,4.51351
68.2196,3.87263
68.2809,3.12776
68.3422,2.60356
68.4036,2.26531
68.4649,2.12343
68.5262,1.77513
68.5875,1.62146
68.6488,1.36728
68.7101,0.976126
68.7715,0.8612
68.8328,0.913125
68.8941,0.644053
68.9554,0.828289
69.0167,0.648126
69.0781,0.160854
69.1394,0.409878
69.2007,0.285821
69.262,0.302572
69.3233,0.270896
69.3846,0.114404
69.446,0.117817
69.5073,0.388776
69.5686,0.113042
69.6299,0.123951
69.6912,0.129835
69.7526,0.151528
69.8139,0.0963068
69.8752,-0.0834113
69.9365,-0.0265807
69.9978,-0.102739