File: Carboncapture/XRD data/Pt_al2o3_raw.csv
2 theta,Intensity
5.0001,-0.0446353
5.06142,-0.0441942
5.12274,0.012202
5.18406,0.0149588
5.24537,0.0491459
5.30669,-0.0206536
5.36801,-0.0972173
5.42933,0.01910747
5.49065,0.04186243
5.55197,-0.033134
5.61329,-0.000666151
5.6746,0.007676363
5.73592,0.0422407
5.79724,0.0943464
5.85856,0.0146877
5.91988,0.0272232
5.9812,0.0382027
6.04252,0.0684596
6.10384,0.0363966
6.16515,-0.0284722
6.22647,0.03878352
6.28779,0.06108056
6.34911,0.0332106
6.41043,0.05239572
6.47175,-0.0341417
6.53307,0.0722094
6.59438,0.091935
6.6557,0.0302437
6.71702,0.0433853
6.77834,0.0393459
6.83966,0.0580562
6.90098,-0.004650538
6.9623,-0.009885464
7.02361,0.101379
7.08493,0.0687269
7.14625,0.0622964
7.20757,0.0752736
7.26889,0.0312045
7.33021,0.0463434
7.39153,-0.108476
7.45284,-0.0651994
7.51416,0.0199245
7.57548,-0.0353965
7.6368,0.0361988
7.69812,-0.0135535
7.75944,0.0167355
7.82076,0.0906075
7.88208,-0.0245765
7.94339,-0.0502961
8.00471,0.0523855
8.06603,0.0788583
8.12735,0.001344732
8.18867,0.0629002
8.24999,-0.01425307
8.31131,-0.0478234
8.37262,-0.003088507
8.43394,-0.005048464
8.49526,0.0469912
8.55658,0.05580826
8.6179,0.0439722
8.67922,0.0496773
8.74054,-0.0729095
8.80185,0.108614
8.86317,0.05767954
8.92449,-0.0868251
8.98581,0.0396837
9.04713,0.140331
9.10845,-0.003633037
9.16977,-0.0415085
9.23108,0.002404795
9.2924,0.0464983
9.35372,0.0213275
9.41504,0.13349
9.47636,0.112151
9.53768,0.0284934
9.599,0.0543906
9.66032,-0.008073787
9.72163,0.0945726
9.78295,-0.0178786
9.84427,-0.005149684
9.90559,0.0372733
9.96691,-0.128457
10.0282,0.030646
10.0895,-0.02014047
10.1509,0.0525171
10.2122,-0.0308951
10.2735,0.0141676
10.3348,0.08536339
10.3961,0.005697689
10.4575,0.0911427
10.5188,-0.0315654
10.5801,0.0403511
10.6414,-0.0142884
10.7027,-0.0409699
10.7641,-0.0709434
10.8254,0.0468327
10.8867,0.0936084
10.948,-0.001796867
11.0093,0.0759527
11.0706,-0.004422014
11.132,0.0542724
11.1933,0.172175
11.2546,0.0472017
11.3159,0.0682422
11.3772,0.115504
11.4386,0.147322
11.4999,0.0890418
11.5612,0.0569836
11.6225,0.049411
11.6838,0.19306
11.7451,0.109459
11.8065,0.111108
11.8678,0.22752
11.9291,-0.0204713
11.9904,0.0719955
12.0517,0.155962
12.1131,0.0560809
12.1744,0.324435
12.2357,0.129429
12.297,0.18113
12.3583,0.134052
12.4197,0.179169
12.481,0.0560638
12.5423,0.151888
12.6036,0.0829624
12.6649,0.0680362
12.7262,0.0324568
12.7876,0.16546
12.8489,0.17538
12.9102,0.209786
12.9715,0.0360382
13.0328,0.112471
13.0942,0.00158354
13.1555,-0.0188457
13.2168,0.021669
13.2781,0.22035
13.3394,0.006016898
13.4008,0.255406
13.4621,0.143863
13.5234,0.154029
13.5847,0.0671525
13.646,0.22004
13.7073,0.199496
13.7687,0.0749655
13.83,0.17631
13.8913,0.277834
13.9526,0.242386
14.0139,0.208854
14.0753,0.0261971
14.1366,0.152748
14.1979,0.128437
14.2592,0.356043
14.3205,0.094245
14.3818,0.113878
14.4432,0.100704
14.5045,0.0529887
14.5658,-0.004963244
14.6271,0.0414317
14.6884,0.0307151
14.7498,-0.002390762
14.8111,0.0167669
14.8724,0.0170075
14.9337,-0.0242384
14.995,-0.0427346
15.0564,0.0899909
15.1177,0.040605
15.179,0.0243854
15.2403,0.0361237
15.3016,-0.0578605
15.3629,0.0323631
15.4243,-0.0751497
15.4856,0.010226
15.5469,-0.0830376
15.6082,-0.0219797
15.6695,0.0732352
15.7309,0.0957137
15.7922,0.227747
15.8535,0.24885
15.9148,0.198952
15.9761,0.328054
16.0375,0.347961
16.0988,0.361104
16.1601,0.438663
16.2214,0.295917
16.2827,0.337378
16.344,0.123811
16.4054,0.268063
16.4667,0.244092
16.528,0.0935659
16.5893,0.0786362
16.6506,0.0291645
16.712,-0.119085
16.7733,-0.006738303
16.8346,0.0155111
16.8959,0.0153712
16.9572,0.0154115
17.0185,0.0191042
17.0799,-0.0204257
17.1412,0.0391829
17.2025,0.0711939
17.2638,0.0148434
17.3251,-0.003132448
17.3865,0.0519885
17.4478,0.0604092
17.5091,0.190527
17.5704,0.159367
17.6317,0.0467894
17.6931,0.134045
17.7544,-0.0458803
17.8157,0.279583
17.877,0.105226
17.9383,0.398064
17.9996,0.614692
18.061,1.04504
18.1223,1.45474
18.1836,1.56601
18.2449,1.29551
18.3062,1.14151
18.3676,0.831443
18.4289,0.743777
18.4902,0.619833
18.5515,0.568986
18.6128,0.466236
18.6742,0.434847
18.7355,0.427943
18.7968,0.544483
18.8581,0.449398
18.9194,0.592341
18.9807,0.567061
19.0421,0.599252
19.1034,1.00315
19.1647,0.806537
19.226,1.03719
19.2873,1.15517
19.3487,1.04416
19.41,1.02188
19.4713,1.06575
19.5326,0.943133
19.5939,0.825905
19.6552,0.795662
19.7166,0.869766
19.7779,0.612453
19.8392,0.495945
19.9005,0.697326
19.9618,0.574234
20.0232,0.762086
20.08448,0.892827
20.1458,1.07757
20.2071,0.873599
20.2684,0.749672
20.3298,0.568634
20.3911,0.641247
20.4524,0.438
20.5137,0.111668
20.575,0.117114
20.6363,0.096699
20.6977,0.0903526
20.759,0.10502
20.8203,0.0486864
20.8816,0.0237834
20.9429,-0.0790646
21.0043,0.0199835
21.0656,0.0497673
21.1269,0.0519535
21.1882,-0.0168607
21.2495,0.05339421
21.3109,-0.06019851
21.3722,0.0434028
21.4335,0.00482324
21.4948,-0.0596178
21.5561,0.02369069
21.6174,-0.003931711
21.6788,0.137029
21.7401,-0.0100249
21.8014,0.225046
21.8627,0.000227652
21.924,0.0932978
21.9854,0.03724255
22.0467,0.00740915
22.108,0.04893648
22.1693,0.0264079
22.2306,0.0613511
22.292,-0.0580394
22.3533,0.107867
22.4146,0.0371721
22.4759,-0.0524401
22.5372,-0.0220804
22.5985,0.0535984
22.6599,-0.0615149
22.7212,0.0492464
22.7825,-0.0585621
22.8438,0.0456152
22.9051,-0.060239
22.9665,-0.0134196
23.0278,0.0283717
23.0891,-0.0216707
23.1504,0.0256893
23.2117,0.007257227
23.273,-0.0155441
23.3344,0.07501153
23.3957,-0.0807805
23.457,0.0186997
23.5183,-0.008376001
23.5796,-0.001443891
23.641,-0.07250962
23.7023,0.0111187
23.7636,-0.0943089
23.8249,0.11468
23.8862,-0.0494152
23.9476,-0.0403878
24.0089,0.119527
24.0702,-0.187392
24.1315,0.0909388
24.1928,0.102089
24.2541,0.0856407
24.3155,-0.0643075
24.3768,0.0220356
24.4381,0.0859894
24.4994,0.153596
24.5607,0.233535
24.6221,-0.030262
24.6834,0.0634283
24.7447,0.103479
24.806,0.308641
24.8673,0.0851633
24.9287,0.276796
24.99,0.100554
25.0513,0.0737977
25.1126,0.07326306
25.1739,-0.006952538
25.2352,0.110929
25.2966,0.234198
25.3579,0.305565
25.4192,0.187876
25.4805,0.0252276
25.5418,0.204774
25.6032,-0.0391113
25.6645,0.0806357
25.7258,0.263365
25.7871,0.295233
25.8484,-0.0407743
25.9097,-0.0571571
25.9711,0.155807
26.0324,0.0269373
26.0937,0.0492895
26.155,-0.0844282
26.2163,0.0667566
26.2777,0.009515097
26.339,-0.0112244
26.4003,0.206064
26.4616,0.135337
26.5229,0.122083
26.5843,0.232272
26.6456,0.328753
26.7069,0.182358
26.7682,0.2167
26.8295,0.096707
26.8908,0.124464
26.9522,0.180179
27.0135,-0.003508987
27.0748,0.01784417
27.1361,0.3866
27.1974,0.205188
27.2588,0.265276
27.3201,0.214434
27.3814,0.349535
27.4427,0.0941912
27.504,0.300833
27.5654,0.552795
27.6267,0.475075
27.688,0.505174
27.7493,0.47469
27.8106,0.402719
27.8719,0.438567
27.9333,0.556193
27.9946,0.642749
28.0559,0.429137
28.1172,0.373692
28.1785,0.297594
28.2399,0.43869
28.3012,0.428925
28.3625,0.375936
28.4238,0.55924
28.4851,0.591681
28.5464,0.613886
28.6078,0.443563
28.6691,0.499115
28.7304,0.626027
28.7917,0.681939
28.853,0.510601
28.9144,0.768262
28.9757,1.06777
29.037,0.947319
29.0983,0.6933681
29.1596,0.917028
29.221,0.937743
29.2823,0.785026
29.3436,0.915477
29.4049,1.17632
29.4662,1.18733
29.5275,1.25756
29.5889,1.25852
29.6502,1.33258
29.7115,1.32002
29.7728,1.17395
29.8341,1.3614
29.8955,1.62541
29.9568,1.56149
30.0181,1.73732
30.0794,1.99493
30.1407,2.23363
30.2021,2.14785
30.2634,2.68378
30.3247,2.76503
30.386,3.15722
30.4473,3.26314
30.5086,3.75639
30.57,4.10572
30.6313,4.56461
30.6926,5.13999
30.7539,5.785
30.8152,6.07603
30.8766,6.70577
30.9379,7.25063
30.9992,7.94671
31.0605,8.16554
31.1218,8.42795
31.1831,8.41797
31.2445,8.32484
31.3058,8.19022
31.3671,7.91169
31.4284,7.78958
31.4897,7.51662
31.5511,7.58758
31.6124,7.07192
31.6737,6.98526
31.735,6.61406
31.7963,6.7847
31.8577,6.55969
31.919,6.43555
31.9803,6.42792
32.0416,6.36491
32.1029,6.87847
32.1642,7.19602
32.2256,7.42175
32.2869,8.29001
32.3482,9.59075
32.4095,11.1139
32.4708,12.9966
32.5322,15.159
32.5935,16.8389
32.6548,17.5728
32.7161,16.6385
32.7774,14.5464
32.8388,12.3938
32.9001,10.0104
32.9614,8.29553
33.0227,6.98367
33.084,6.05045
33.1453,5.26846
33.2067,4.88422
33.268,4.09739
33.3293,4.17531
33.3906,4.02772
33.4519,3.67198
33.5133,3.3685
33.5746,3.48013
33.6359,3.40445
33.6972,3.45915
33.7585,2.9984
33.8199,2.92846
33.8812,3.15732
33.9425,2.83947
34.0038,3.09647
34.0651,3.00468
34.1264,3.06932
34.1878,3.19664
34.2491,3.44741
34.3104,3.31641
34.3717,3.34705
34.433,3.78586
34.4944,3.79082
34.5557,3.86541
34.617,4.05996
34.6783,3.94567
34.7396,4.02774
34.8009,4.35825
34.8623,4.16117
34.9236,4.28718
34.9849,4.24497
35.0462,4.23593
35.1075,4.2288
35.1689,4.04304
35.2302,4.21335
35.2915,3.94461
35.3528,4.38786
35.4141,4.1924
35.4755,4.54572
35.5368,4.62493
35.5981,4.84494
35.6594,5.26999
35.7207,5.4539
35.782,5.3116
35.8434,6.06879
35.9047,6.49803
35.966,7.17051
36.0273,7.28761
36.0886,7.76774
36.15,8.69597
36.2113,9.15736
36.2726,10.0807
36.3339,10.8168
36.3952,11.0409
36.4566,11.0777
36.5179,12.375
36.5792,11.8496
36.6405,11.6595
36.7018,12.0633
36.7631,11.8128
36.8245,11.526
36.8858,10.8748
36.9471,10.6213
37.0084,10.1788
37.0697,9.8094
37.1311,9.42628
37.1924,8.80201
37.2537,8.42098
37.315,8.26583
37.3763,7.73064
37.4376,7.7321
37.499,7.4629
37.5603,7.31541
37.6216,6.89206
37.6829,6.54528
37.7442,6.35666
37.8056,6.58663
37.8669,6.17268
37.9282,6.47592
37.9895,6.62831
38.0508,6.85379
38.1122,6.59507
38.1735,7.00494
38.2348,6.78999
38.2961,7.30959
38.3574,7.50646
38.4187,7.61843
38.4801,8.21497
38.5414,8.48529
38.6027,9.3617
38.664,9.54905
38.7253,9.68449
38.7867,10.3427
38.848,10.5375
38.9093,10.3992
38.9706,10.4677
39.0319,10.7169
39.0933,10.902
39.1546,10.5422
39.2159,10.6009
39.2772,10.7224
39.3385,10.9204
39.3998,10.9554
39.4612,10.8309
39.5225,10.7065
39.5838,10.7663
39.6451,10.6371
39.7064,9.91782
39.7678,9.57022
39.8291,8.88426
39.8904,8.05959
39.9517,7.62746
40.013,6.95246
40.0743,6.63701
40.1357,5.96583
40.197,5.38338
40.2583,4.96084
40.3196,4.64958
40.3809,4.55031
40.4423,4.08837
40.5036,3.77418
40.5649,3.27267
40.6262,2.95364
40.6875,2.94033
40.7489,2.29353
40.8102,2.38476
40.8715,2.13415
40.9328,1.87504
40.9941,1.80014
41.0554,1.50841
41.1168,1.53457
41.1781,1.33868
41.2394,1.41033
41.3007,1.13668
41.362,1.46043
41.4234,1.05172
41.4847,0.882778
41.546,0.722695
41.6073,1.0871
41.6686,0.720776
41.73,0.852899
41.7913,0.389716
41.8526,0.555186
41.9139,0.311114
41.9752,0.275555
42.0365,0.179412
42.0979,0.0174777
42.1592,0.329682
42.2205,0.0951907
42.2818,-0.161689
42.3431,0.00869395
42.4045,0.0247436
42.4658,-0.112017
42.5271,-0.0528426
42.5884,0.155818
42.6497,-0.138814
42.711,-0.05305757
42.7724,0.0919071
42.8337,0.0460796
42.895,-0.0976097
42.9563,0.17738
43.0176,-0.002310574
43.079,0.0282481
43.1403,0.156209
43.2016,0.110739
43.2629,0.143575
43.3242,0.357146
43.3856,-0.0193807
43.4469,0.408092
43.5082,0.238523
43.5695,0.228857
43.6308,0.498884
43.6921,0.557286
43.7535,0.772119
43.8148,0.860395
43.8761,0.836004
43.9374,1.3604
43.9987,1.59853
44.0601,2.30384
44.1214,2.63955
44.1827,2.97196
44.244,3.74032
44.3053,4.69636
44.3667,5.66993
44.428,6.57946
44.4893,7.86416
44.5506,9.23585
44.6119,10.7345
44.6732,11.6516
44.7346,12.5846
44.7959,13.2418
44.8572,13.6925
44.9185,13.7389
44.9798,14.0233
45.0412,14.077
45.1025,14.2194
45.1638,14.0668
45.2251,14.253
45.2864,13.9428
45.3478,13.6016
45.4091,12.9445
45.4704,12.4578
45.5317,12.1518
45.593,11.0474
45.6543,10.4814
45.7157,9.54397
45.777,9.296
45.8383,8.65758
45.8996,8.21379
45.9609,7.49066
46.0223,7.22952
46.0836,7.24287
46.1449,6.93521
46.2062,6.66593
46.2675,7.04614
46.3288,7.33451
46.3902,7.08834
46.4515,6.86145
46.5128,6.87084
46.5741,6.95855
46.6354,6.77907
46.6968,6.74734
46.7581,6.45364
46.8194,6.2695
46.8807,6.06817
46.942,5.79411
47.0034,5.79974
47.0647,5.53472
47.126,5.73516
47.1873,5.60938
47.2486,5.7581
47.3099,5.85317
47.3713,5.66197
47.4326,5.60983
47.4939,5.41725
47.5552,4.97832
47.6165,4.53263
47.6779,4.19302
47.7392,3.45255
47.8005,2.97442
47.8618,2.53465
47.9231,2.1159
47.9845,1.76678
48.0458,1.40742
48.1071,1.09511
48.1684,0.746529
48.2297,0.519653
48.291,0.707888
48.3524,0.547344
48.4137,0.428648
48.475,0.306659
48.5363,0.0876283
48.5976,0.34968
48.659,0.415732
48.7203,0.0774504
48.7816,0.147335
48.8429,0.0680939
48.9042,0.129658
48.9655,-0.05686144
49.0269,-0.135562
49.0882,0.272029
49.1495,0.155494
49.2108,-0.09280442
49.2721,-0.106548
49.3335,0.003152361
49.3948,0.114769
49.4561,-0.240448
49.5174,-0.02554853
49.5787,0.17217
49.6401,0.10618
49.7014,-0.0256026
49.7627,0.0216147
49.824,0.115887
49.8853,0.182562
49.9466,0.225112
50.008,0.50048
50.0693,0.47221
50.1306,0.475369
50.1919,0.671417
50.2532,1.05688
50.3146,1.0085
50.3759,1.30578
50.4372,1.75949
50.4985,1.36269
50.5598,1.75427
50.6212,1.71894
50.6825,1.57268
50.7438,1.63146
50.8051,1.39528
50.8664,1.45616
50.9277,1.07798
50.9891,0.864909
51.0504,1.11035
51.1117,1.03654
51.173,0.461161
51.2343,0.754022
51.2957,0.77623
51.357,0.487854
51.4183,0.560769
51.4796,0.481087
51.5409,0.264432
51.6022,0.33268
51.6636,0.232705
51.7249,0.0165904
51.7862,0.0471841
51.8475,-0.0105838
51.9088,0.106326
51.9702,-0.257045
52.0315,0.0412238
52.0928,0.0948807
52.1541,0.0306622
52.2154,0.22704
52.2768,0.147557
52.3381,0.0543654
52.3994,0.28427
52.4607,0.352897
52.522,0.154343
52.5833,0.270205
52.6447,0.54597
52.706,0.325387
52.7673,0.0754698
52.8286,-0.000655704
52.8899,0.0449268
52.9513,-0.0186856
53.0126,-0.111632
53.0739,0.0247691
53.1352,0.1301
53.1965,0.136653
53.2579,0.001024602
53.3192,0.0895349
53.3805,-0.078719
53.4418,0.21618
53.5031,-0.0862486
53.5644,0.0715728
53.6258,-0.102023
53.6871,0.0822006
53.7484,-0.0754097
53.8097,0.108506
53.871,-0.0575598
53.9324,0.03176349
53.9937,0.159461
54.055,0.110256
54.1163,-0.004741273
54.1776,0.1044
54.2389,0.159902
54.3003,0.272876
54.3616,0.160335
54.4229,0.0931135
54.4842,0.0937806
54.5455,0.141666
54.6069,-0.0193887
54.6682,0.194737
54.7295,-0.0666516
54.7908,0.0540845
54.8521,0.234028
54.9135,-0.0111946
54.9748,-0.0670014
55.0361,-0.167767
55.0974,0.113343
55.1587,-0.16886
55.22,-0.147063
55.2814,-0.04869718
55.3427,-0.0248039
55.404,-0.087536
55.4653,0.22144
55.5266,0.138235
55.588,0.173265
55.6493,0.000142938
55.7106,0.136228
55.7719,0.0155496
55.8332,0.0235231
55.8946,-0.03603145
55.9559,0.0382747
56.0172,0.138803
56.0785,0.314164
56.1398,-0.00508693
56.2011,0.149801
56.2625,0.252786
56.3238,0.206645
56.3851,0.268324
56.4464,0.305877
56.5077,0.331457
56.5691,0.230482
56.6304,0.197395
56.6917,0.607197
56.753,0.223775
56.8143,0.180812
56.8757,0.188377
56.937,0.242996
56.9983,0.110296
57.0596,0.20347
57.1209,0.182241
57.1822,0.057026
57.2436,0.263588
57.3049,0.227275
57.3662,-0.0102474
57.4275,0.24373
57.4888,0.103791
57.5502,-0.0845797
57.6115,-0.0870061
57.6728,-0.125711
57.7341,-0.182725
57.7954,0.129709
57.8567,0.0187119
57.9181,0.10234
57.9794,0.02468943
58.0407,0.115239
58.102,0.095535
58.1633,0.001358137
58.2247,0.10875
58.286,0.282295
58.3473,0.508103
58.4086,0.300063
58.4699,0.380398
58.5313,0.478275
58.5926,0.833276
58.6539,0.900262
58.7152,0.838957
58.7765,0.840332
58.8378,0.902651
58.8992,0.739456
58.9605,0.902829
59.0218,0.988258
59.0831,1.14852
59.1444,1.0225
59.2058,1.36715
59.2671,1.48282
59.3284,1.58651
59.3897,2.0567
59.451,2.28749
59.5124,2.68686
59.5737,3.09856
59.635,3.23614
59.6963,3.55619
59.7576,3.7601
59.8189,3.89127
59.8803,3.82124
59.9416,3.91631
60.0029,3.89351
60.0642,3.67298
60.1255,3.47519
60.1869,3.14564
60.2482,3.28328
60.3095,2.9975
60.3708,2.89939
60.4321,2.73375
60.4934,2.47455
60.5548,2.15649
60.6161,2.26223
60.6774,2.27614
60.7387,2.36314
60.8,2.17428
60.8614,2.04984
60.9227,2.33877
60.984,2.04107
61.0453,2.18974
61.1066,2.21879
61.168,2.55185
61.2293,1.9389
61.2906,2.3244
61.3519,2.1632
61.4132,2.09246
61.4745,2.22677
61.5359,2.3925
61.5972,2.34487
61.6585,2.32867
61.7198,2.13036
61.7811,2.50515
61.8425,2.39574
61.9038,2.36811
61.9651,2.52816
62.0264,2.71964
62.0877,2.58491
62.1491,2.94168
62.2104,2.77953
62.2717,2.88146
62.333,3.06516
62.3943,2.76466
62.4556,2.55463
62.517,2.50102
62.5783,2.75141
62.6396,2.10615
62.7009,2.17288
62.7622,1.97416
62.8236,2.07249
62.8849,1.62587
62.9462,1.71241
63.0075,1.67067
63.0688,1.60653
63.1301,1.645
63.1915,1.64546
63.2528,1.84749
63.3141,2.12782
63.3754,2.01076
63.4367,2.21333
63.4981,2.39004
63.5594,2.69713
63.6207,2.7735
63.682,2.92124
63.7433,3.2879
63.8047,3.48634
63.866,3.63114
63.9273,3.7987
63.9886,3.81191
64.0499,3.66212
64.1112,3.49167
64.1726,3.40299
64.2339,3.48464
64.2952,3.46751
64.3565,3.45924
64.4178,3.43552
64.4792,3.42761
64.5405,3.1612
64.6018,3.32379
64.6631,3.47267
64.7244,3.35437
64.7858,3.39076
64.8471,3.77456
64.9084,3.62381
64.9697,3.84824
65.031,4.09543
65.0923,4.03029
65.1537,4.4254
65.215,4.48736
65.2763,4.85159
65.3376,5.08925
65.3989,5.05453
65.4603,5.45055
65.5216,5.51514
65.5829,5.71881
65.6442,6.29418
65.7055,6.50168
65.7668,6.61214
65.8282,7.33041
65.8895,7.90824
65.9508,8.62514
66.0121,9.40125
66.0734,10.405
66.1348,11.3064
66.1961,12.6612
66.2574,14.0439
66.3187,15.1074
66.38,16.5547
66.4414,17.0786
66.5027,17.6426
66.564,18.219
66.6253,18.575
66.6866,19.0319
66.7479,19.7651
66.8093,20.8959
66.8706,20.9402
66.9319,22.1062
66.9932,23.6994
67.0545,24.1904
67.1159,25.3082
67.1772,25.8517
67.2385,25.5029
67.2998,24.946
67.3611,24.5125
67.4225,22.7424
67.4838,20.8545
67.5451,18.9562
67.6064,16.4714
67.6677,15.1031
67.729,13.0318
67.7904,10.7888
67.8517,9.24048
67.913,7.90065
67.9743,6.6478
68.0356,5.63645
68.097,4.79889
68.1583,3.98756
68.2196,3.56529
68.2809,2.88105
68.3422,2.47303
68.4036,2.32214
68.4649,2.05511
68.5262,1.71707
68.5875,1.47992
68.6488,1.5103
68.7101,0.928015
68.7715,0.910147
68.8328,0.908084
68.8941,0.855855
68.9554,0.746514
69.0167,0.573117
69.0781,0.523164
69.1394,0.417835
69.2007,0.38734
69.262,0.282372
69.3233,0.413695
69.3846,0.338601
69.446,0.176882
69.5073,0.12819
69.5686,0.116137
69.6299,0.0990554
69.6912,0.0404875
69.7526,-0.0665114
69.8139,0.0227263
69.8752,-0.005973506
69.9365,-0.07865379
69.9978,-0.106315