File: Carboncapture/XRD data/Pt_al2o3_400C.csv
2 theta,Intensity
5.0001,-0.0437142
5.06142,-0.0321534
5.12274,0.0768104
5.18406,-0.02064214
5.24537,-0.006802776
5.30669,0.0349952
5.36801,0.0248907
5.42933,0.0601058
5.49065,-0.0277621
5.55197,0.0355925
5.61329,0.0262113
5.6746,-0.0194474
5.73592,0.04444966
5.79724,0.04429146
5.85856,0.039125
5.91988,0.034149
5.9812,0.0345622
6.04252,-0.0134549
6.10384,-0.0387217
6.16515,0.003900624
6.22647,0.04843989
6.28779,-0.0239078
6.34911,0.065623
6.41043,0.004292994
6.47175,-0.0151895
6.53307,0.0280088
6.59438,0.001943477
6.6557,0.0802257
6.71702,-0.0687419
6.77834,0.025527
6.83966,0.000184949
6.90098,-0.037129
6.9623,-0.0499566
7.02361,0.0183113
7.08493,0.107593
7.14625,-0.0807217
7.20757,0.11101
7.26889,0.0893814
7.33021,0.123489
7.39153,-0.0140977
7.45284,0.0238437
7.51416,0.001202067
7.57548,0.06381068
7.6368,0.0450029
7.69812,0.0663065
7.75944,-0.0337369
7.82076,0.0243867
7.88208,0.0392884
7.94339,-0.001184735
8.00471,0.0349119
8.06603,0.0312588
8.12735,-0.0503385
8.18867,0.0835228
8.24999,-0.0231904
8.31131,0.0884192
8.37262,0.0509041
8.43394,-0.002055203
8.49526,0.0423886
8.55658,0.0818048
8.6179,-0.007070328
8.67922,0.100416
8.74054,-0.0193476
8.80185,0.18225
8.86317,0.0888901
8.92449,0.07904414
8.98581,-0.0110751
9.04713,0.0228004
9.10845,0.0828985
9.16977,0.042483
9.23108,0.1341927
9.2924,-0.0499584
9.35372,0.104613
9.41504,-0.044986
9.47636,-0.0600508
9.53768,-0.0367404
9.599,-0.108735
9.66032,-0.0867993
9.72163,-0.0457652
9.78295,-0.0288557
9.84427,-0.0551682
9.90559,0.0211307
9.96691,-0.00482016
10.0282,-0.00107629
10.0895,-0.0631238
10.1509,0.147148
10.2122,0.09371263
10.2735,0.0786521
10.3348,-0.0421304
10.3961,0.0473374
10.4575,0.0414124
10.5188,0.0372296
10.5801,0.102672
10.6414,0.150934
10.7027,0.136877
10.7641,0.20807
10.8254,0.1596525
10.8867,0.0662768
10.948,0.08419302
11.0093,0.326248
11.0706,0.2368874
11.132,0.194582
11.1933,0.27225
11.2546,0.452528
11.3159,0.4541683
11.3772,0.475086
11.4386,0.539588
11.4999,0.632048
11.5612,0.460801
11.6225,0.812303
11.6838,0.551139
11.7451,0.718976
11.8065,0.657826
11.8678,0.761788
11.9291,0.937112
11.9904,0.968519
12.0517,1.024412
12.1131,1.01625
12.1744,1.14542
12.2357,1.14457
12.297,1.34181
12.3583,1.38992
12.4197,1.16392
12.481,1.44156
12.5423,1.69855
12.6036,1.55469
12.6649,1.5794
12.7262,1.77096
12.7876,1.72833
12.8489,1.60602
12.9102,1.7582
12.9715,2.01125
13.0328,1.95198
13.0942,2.08733
13.1555,1.93294
13.2168,1.99227
13.2781,2.26532
13.3394,1.97953
13.4008,2.06718
13.4621,2.24355
13.5234,2.25517
13.5847,2.2635
13.646,2.46125
13.7073,2.53591
13.7687,2.55694
13.83,2.63196
13.8913,2.4971
13.9526,2.47353
14.0139,2.39111
14.0753,2.49638
14.1366,2.53064
14.1979,2.48696
14.2592,2.62228
14.3205,2.51646
14.3818,2.54103
14.4432,2.62307
14.5045,2.64627
14.5658,2.4752
14.6271,2.57862
14.6884,2.68048
14.7498,2.73739
14.8111,2.791
14.8724,2.60521
14.9337,2.52551
14.995,2.66821
15.0564,2.69129
15.1177,2.83435
15.179,2.94114
15.2403,2.5915
15.3016,2.58753
15.3629,2.67923
15.4243,2.77459
15.4856,2.66526
15.5469,2.69847
15.6082,2.74923
15.6695,2.91649
15.7309,2.75233
15.7922,2.91474
15.8535,3.03045
15.9148,3.11163
15.9761,2.94819
16.0375,3.22417
16.0988,2.92568
16.1601,3.01452
16.2214,3.01674
16.2827,3.05212
16.344,2.85678
16.4054,2.84913
16.4667,2.8538
16.528,2.69547
16.5893,2.70224
16.6506,2.34288
16.712,2.60001
16.7733,2.55525
16.8346,2.43601
16.8959,2.44022
16.9572,2.40814
17.0185,2.27382
17.0799,2.38448
17.1412,2.31475
17.2025,2.27646
17.2638,2.20363
17.3251,2.18479
17.3865,2.34496
17.4478,2.30045
17.5091,2.09466
17.5704,2.01231
17.6317,2.16973
17.6931,2.04087
17.7544,2.27156
17.8157,2.1205
17.877,1.95225
17.9383,1.96127
17.9996,1.98782
18.061,1.90172
18.1223,1.93905
18.1836,2.03386
18.2449,1.97607
18.3062,1.99138
18.3676,2.114514
18.4289,1.90796
18.4902,1.86132
18.5515,1.86346
18.6128,2.00467
18.6742,1.71551
18.7355,1.74945
18.7968,2.01968
18.8581,2.12516
18.9194,2.24818
18.9807,1.97555
19.0421,2.13886
19.1034,2.11138
19.1647,2.15006
19.226,2.10905
19.2873,2.50225
19.3487,2.15953
19.41,2.23538
19.4713,2.40691
19.5326,2.14632
19.5939,1.99181
19.6552,1.89999
19.7166,1.91772
19.7779,1.73599
19.8392,1.42943
19.9005,1.43902
19.9618,1.27345
20.0232,1.33723
20.08448,1.17202
20.1458,0.935806
20.2071,0.90811
20.2684,0.979553
20.3298,0.780344
20.3911,0.897288
20.4524,0.856427
20.5137,0.628247
20.575,0.651983
20.6363,0.615137
20.6977,0.453471
20.759,0.443028
20.8203,0.611585
20.8816,0.578934
20.9429,0.581186
21.0043,0.416952
21.0656,0.532413
21.1269,0.392846
21.1882,0.300336
21.2495,0.482311
21.3109,0.251273
21.3722,0.213124
21.4335,0.45467
21.4948,0.449869
21.5561,0.0129574
21.6174,0.479004
21.6788,0.207384
21.7401,0.194626
21.8014,0.267118
21.8627,0.285971
21.924,0.160908
21.9854,0.13672
22.0467,0.187366
22.108,0.281596
22.1693,0.126006
22.2306,0.0782358
22.292,0.242452
22.3533,0.129072
22.4146,0.186011
22.4759,0.213617
22.5372,0.05737574
22.5985,0.0211073
22.6599,-0.0479664
22.7212,-0.0283176
22.7825,0.106095
22.8438,0.0115224
22.9051,-0.009093228
22.9665,0.155798
23.0278,-0.0992696
23.0891,-0.0711698
23.1504,0.155027
23.2117,-0.004011184
23.273,-0.0743273
23.3344,0.103801
23.3957,0.125861
23.457,0.0630315
23.5183,0.116703
23.5796,0.0854851
23.641,0.0579206
23.7023,-0.0346131
23.7636,-0.0315718
23.8249,0.0358866
23.8862,0.0670674
23.9476,0.193915
24.0089,-0.04995
24.0702,0.0114533
24.1315,0.189357
24.1928,0.0601497
24.2541,0.0648038
24.3155,0.144292
24.3768,0.0798629
24.4381,0.01561508
24.4994,0.05918697
24.5607,0.168912
24.6221,-0.00937677
24.6834,-0.0468596
24.7447,0.142246
24.806,0.425639
24.8673,0.318588
24.9287,0.0832458
24.99,0.125862
25.0513,0.116576
25.1126,0.209901
25.1739,0.23917
25.2352,0.285982
25.2966,0.279155
25.3579,0.171815
25.4192,0.266044
25.4805,0.322259
25.5418,0.118239
25.6032,0.148775
25.6645,0.203797
25.7258,0.182611
25.7871,-0.0328392
25.8484,0.3890447
25.9097,0.232984
25.9711,0.0441188
26.0324,0.190503
26.0937,0.288458
26.155,0.438676
26.2163,0.297409
26.2777,0.338614
26.339,0.3175
26.4003,0.576081
26.4616,0.501509
26.5229,0.611146
26.5843,0.547353
26.6456,0.620893
26.7069,0.373433
26.7682,0.730321
26.8295,0.396418
26.8908,0.760612
26.9522,0.782973
27.0135,0.795098
27.0748,0.861223
27.1361,0.769543
27.1974,0.70235
27.2588,0.883601
27.3201,0.86538
27.3814,1.03831
27.4427,0.933648
27.504,0.974997
27.5654,1.07729
27.6267,0.895045
27.688,0.853603
27.7493,1.19776
27.8106,1.16362
27.8719,1.26335
27.9333,1.2834
27.9946,1.38522
28.0559,1.44035
28.1172,1.45052
28.1785,1.28553
28.2399,1.54606
28.3012,1.64879
28.3625,1.49302
28.4238,1.59958
28.4851,1.64729
28.5464,1.83061
28.6078,1.73979
28.6691,1.83493
28.7304,1.76704
28.7917,2.11601
28.853,1.94953
28.9144,2.01067
28.9757,2.37059
29.037,2.38174
29.0983,2.11703
29.1596,2.23791
29.221,2.37981
29.2823,2.38126
29.3436,2.48707
29.4049,2.71458
29.4662,2.7513
29.5275,2.49132
29.5889,2.64819
29.6502,2.96323
29.7115,3.01804
29.7728,3.01573
29.8341,3.28444
29.8955,3.37798
29.9568,3.39184
30.0181,3.41803
30.0794,3.51906
30.1407,3.77652
30.2021,4.27548
30.2634,4.25378
30.3247,4.6229
30.386,5.0026
30.4473,5.21409
30.5086,5.6584
30.57,5.75914
30.6313,6.28714
30.6926,6.87782
30.7539,7.34369
30.8152,7.95383
30.8766,8.72387
30.9379,9.60868
30.9992,10.0735
31.0605,9.66183
31.1218,10.3649
31.1831,10.6306
31.2445,9.95558
31.3058,9.66092
31.3671,9.43588
31.4284,9.18151
31.4897,9.05753
31.5511,9.02227
31.6124,8.38998
31.6737,8.63807
31.735,8.37418
31.7963,8.40041
31.8577,8.26537
31.919,7.85272
31.9803,8.2163
32.0416,8.26756
32.1029,8.85198
32.1642,9.16402
32.2256,9.45714
32.2869,10.4987
32.3482,11.6498
32.4095,12.6258
32.4708,15.3432
32.5322,16.7206
32.5935,18.6381
32.6548,18.4481
32.7161,17.6072
32.7774,15.3968
32.8388,13.5059
32.9001,11.0858
32.9614,9.49042
33.0227,8.28242
33.084,7.14752
33.1453,6.65342
33.2067,5.92513
33.268,5.60848
33.3293,5.25207
33.3906,5.24828
33.4519,4.78981
33.5133,4.38534
33.5746,4.66334
33.6359,4.45889
33.6972,4.78065
33.7585,4.40815
33.8199,4.71292
33.8812,4.34252
33.9425,4.36119
34.0038,4.38525
34.0651,4.34872
34.1264,4.34884
34.1878,4.62691
34.2491,4.77322
34.3104,4.95443
34.3717,4.79555
34.433,4.78442
34.4944,4.97485
34.5557,4.99359
34.617,4.90314
34.6783,5.25731
34.7396,5.16722
34.8009,5.33252
34.8623,5.14036
34.9236,5.42581
34.9849,5.43714
35.0462,5.08927
35.1075,5.26589
35.1689,4.91492
35.2302,5.45127
35.2915,5.16663
35.3528,5.5089
35.4141,5.38434
35.4755,5.28253
35.5368,5.54549
35.5981,5.60897
35.6594,5.95388
35.7207,5.9778
35.782,6.73453
35.8434,6.76575
35.9047,7.42215
35.966,7.78359
36.0273,8.04452
36.0886,8.77785
36.15,9.35859
36.2113,10.1114
36.2726,10.5848
36.3339,11.1019
36.3952,11.8899
36.4566,11.8066
36.5179,12.7148
36.5792,12.9288
36.6405,12.3686
36.7018,12.5256
36.7631,11.6689
36.8245,11.9565
36.8858,11.6783
36.9471,10.9055
37.0084,10.5617
37.0697,10.2892
37.1311,9.58292
37.1924,9.30562
37.2537,8.76288
37.315,8.41996
37.3763,8.0998
37.4376,8.07669
37.499,7.29335
37.5603,7.12824
37.6216,7.13693
37.6829,6.69441
37.7442,6.71561
37.8056,6.81859
37.8669,6.41307
37.9282,6.18134
37.9895,6.18764
38.0508,6.18023
38.1122,6.80147
38.1735,6.57914
38.2348,7.06533
38.2961,7.02045
38.3574,7.47575
38.4187,7.69512
38.4801,7.81398
38.5414,8.2976
38.6027,8.82133
38.664,9.3192
38.7253,9.95614
38.7867,9.77556
38.848,10.083
38.9093,10.0746
38.9706,10.2436
39.0319,10.4682
39.0933,10.5628
39.1546,10.6524
39.2159,10.2682
39.2772,10.2627
39.3385,10.6115
39.3998,10.6012
39.4612,10.8184
39.5225,10.706
39.5838,10.3732
39.6451,9.97813
39.7064,9.65443
39.7678,8.8309
39.8291,7.98846
39.8904,8.05244
39.9517,6.91175
40.013,6.8129
40.0743,6.46077
40.1357,5.45083
40.197,4.99662
40.2583,4.9853
40.3196,4.37868
40.3809,4.25314
40.4423,3.98543
40.5036,3.56164
40.5649,3.33421
40.6262,2.6469
40.6875,3.09692
40.7489,2.42212
40.8102,2.42284
40.8715,2.38556
40.9328,2.19568
40.9941,2.05806
41.0554,1.87374
41.1168,1.88579
41.1781,1.47962
41.2394,1.54758
41.3007,1.23379
41.362,1.17885
41.4234,1.26646
41.4847,0.967089
41.546,1.27207
41.6073,0.924454
41.6686,0.59438
41.73,1.01969
41.7913,0.809774
41.8526,1.02191
41.9139,0.668253
41.9752,0.573458
42.0365,0.4719
42.0979,0.53198
42.1592,0.635644
42.2205,0.602337
42.2818,0.593515
42.3431,-0.000194517
42.4045,0.246554
42.4658,0.422303
42.5271,0.414205
42.5884,0.156288
42.6497,0.235357
42.711,0.234746
42.7724,0.218691
42.8337,0.355594
42.895,0.322539
42.9563,0.364318
43.0176,0.217042
43.079,0.417168
43.1403,0.284142
43.2016,0.396089
43.2629,0.180091
43.3242,0.325386
43.3856,0.479542
43.4469,0.434225
43.5082,0.644298
43.5695,0.677469
43.6308,0.893112
43.6921,0.735672
43.7535,0.986399
43.8148,0.88314
43.8761,1.23145
43.9374,1.39939
43.9987,1.78278
44.0601,2.44761
44.1214,2.66817
44.1827,3.05384
44.244,4.06643
44.3053,4.40386
44.3667,6.01056
44.428,7.01848
44.4893,8.40506
44.5506,9.5748
44.6119,10.8836
44.6732,11.6961
44.7346,12.6962
44.7959,12.8893
44.8572,13.8238
44.9185,14.0311
44.9798,13.7681
45.0412,14.224
45.1025,14.1436
45.1638,13.9228
45.2251,13.6761
45.2864,13.8828
45.3478,13.6747
45.4091,13.3626
45.4704,12.8076
45.5317,11.9247
45.593,11.1704
45.6543,10.4997
45.7157,9.51659
45.777,9.11704
45.8383,8.40516
45.8996,7.79416
45.9609,7.59306
46.0223,7.35222
46.0836,6.88239
46.1449,7.15058
46.2062,7.04743
46.2675,7.31078
46.3288,7.28611
46.3902,7.43524
46.4515,7.00643
46.5128,7.24966
46.5741,7.11982
46.6354,7.06307
46.6968,6.90929
46.7581,6.73311
46.8194,6.51892
46.8807,6.27192
46.942,5.95219
47.0034,5.80104
47.0647,5.76466
47.126,5.66422
47.1873,5.74626
47.2486,5.98646
47.3099,5.6383
47.3713,5.92226
47.4326,5.60745
47.4939,5.44386
47.5552,5.34295
47.6165,4.53562
47.6779,3.88647
47.7392,3.41283
47.8005,2.94633
47.8618,2.46612
47.9231,2.26386
47.9845,1.81873
48.0458,1.11337
48.1071,1.21895
48.1684,0.91672
48.2297,0.744883
48.291,0.625311
48.3524,0.472933
48.4137,0.343305
48.475,0.250317
48.5363,0.154037
48.5976,0.144744
48.659,0.0852839
48.7203,-0.0208702
48.7816,0.0554483
48.8429,-0.180552
48.9042,0.0469669
48.9655,0.0420281
49.0269,-0.0530077
49.0882,-0.007237608
49.1495,-0.0862867
49.2108,0.0528665
49.2721,-0.007173244
49.3335,0.0371345
49.3948,-0.116294
49.4561,0.012452
49.5174,-0.0947677
49.5787,0.204373
49.6401,-0.0605408
49.7014,0.07750356
49.7627,0.11677
49.824,0.623232
49.8853,0.489249
49.9466,0.273851
50.008,0.685368
50.0693,0.737692
50.1306,0.616586
50.1919,1.02691
50.2532,1.14575
50.3146,1.43664
50.3759,1.43605
50.4372,1.48946
50.4985,1.85902
50.5598,1.81904
50.6212,1.96501
50.6825,1.88199
50.7438,1.76095
50.8051,1.54288
50.8664,1.36665
50.9277,1.31907
50.9891,1.2873
51.0504,0.852938
51.1117,1.0941
51.173,0.939609
51.2343,0.971062
51.2957,0.652003
51.357,0.749791
51.4183,0.597759
51.4796,0.574381
51.5409,0.325489
51.6022,0.370181
51.6636,0.052206
51.7249,0.218787
51.7862,-0.0276454
51.8475,0.071589
51.9088,0.0494765
51.9702,0.003239245
52.0315,0.0641445
52.0928,0.0874178
52.1541,0.265386
52.2154,0.207424
52.2768,0.212142
52.3381,0.142389
52.3994,0.150941
52.4607,0.227383
52.522,0.111297
52.5833,0.27317
52.6447,0.0168206
52.706,0.07836055
52.7673,0.244248
52.8286,0.195038
52.8899,0.272746
52.9513,0.262092
53.0126,-0.000116271
53.0739,0.0382031
53.1352,-0.0413523
53.1965,-0.0356574
53.2579,0.0153571
53.3192,0.165511
53.3805,0.005081592
53.4418,-0.165584
53.5031,-0.0870584
53.5644,0.184111
53.6258,-0.004608467
53.6871,-0.000438634
53.7484,0.0455787
53.8097,0.109138
53.871,0.155517
53.9324,0.0423545
53.9937,-0.0949326
54.055,0.157235
54.1163,0.0260947
54.1776,0.0774272
54.2389,0.121996
54.3003,0.0313292
54.3616,0.0710514
54.4229,-0.0956428
54.4842,0.0642327
54.5455,-0.114253
54.6069,0.0980679
54.6682,0.1005
54.7295,0.123946
54.7908,-0.196177
54.8521,0.200964
54.9135,-0.0926862
54.9748,0.202386
55.0361,0.0254171
55.0974,0.188907
55.1587,0.118202
55.22,-0.158919
55.2814,-0.0209287
55.3427,0.0130758
55.404,-0.0760028
55.4653,-0.166637
55.5266,0.0640909
55.588,0.154374
55.6493,0.0330329
55.7106,-0.0134748
55.7719,0.0999205
55.8332,0.064191
55.8946,-0.0755243
55.9559,0.0748719
56.0172,0.0119071
56.0785,0.070651
56.1398,0.0931173
56.2011,0.214723
56.2625,0.121231
56.3238,0.26056
56.3851,0.0858327
56.4464,0.208162
56.5077,0.0494212
56.5691,0.342251
56.6304,0.222066
56.6917,0.154146
56.753,0.164532
56.8143,0.369543
56.8757,0.395915
56.937,0.149899
56.9983,0.303369
57.0596,0.0802841
57.1209,0.07960203
57.1822,0.172851
57.2436,0.0874609
57.3049,0.144613
57.3662,0.14639
57.4275,0.170918
57.4888,0.0636819
57.5502,0.07641835
57.6115,0.0858634
57.6728,-0.237844
57.7341,0.050006
57.7954,0.143592
57.8567,0.306804
57.9181,0.109086
57.9794,0.0834228
58.0407,0.0266909
58.102,-0.0194436
58.1633,0.517936
58.2247,0.227372
58.286,0.412682
58.3473,0.330813
58.4086,0.297735
58.4699,0.476644
58.5313,0.692192
58.5926,0.706532
58.6539,0.837372
58.7152,0.664574
58.7765,0.905151
58.8378,0.979242
58.8992,1.024
58.9605,1.23908
59.0218,1.31197
59.0831,1.16283
59.1444,1.21005
59.2058,1.66717
59.2671,1.8085
59.3284,1.88751
59.3897,2.1785
59.451,2.5426
59.5124,2.68465
59.5737,2.87549
59.635,3.21756
59.6963,3.68307
59.7576,3.7755
59.8189,3.94624
59.8803,3.69354
59.9416,3.71359
60.0029,3.7807
60.0642,3.7907
60.1255,3.50748
60.1869,3.43798
60.2482,3.40859
60.3095,3.17799
60.3708,2.92327
60.4321,2.96213
60.4934,2.57583
60.5548,2.63241
60.6161,2.51383
60.6774,2.32772
60.7387,2.45256
60.8,2.25292
60.8614,2.3243
60.9227,2.35072
60.984,2.37211
61.0453,2.29994
61.1066,2.45711
61.168,2.10578
61.2293,2.22338
61.2906,2.36373
61.3519,2.41572
61.4132,2.26824
61.4745,2.37268
61.5359,2.23077
61.5972,2.19841
61.6585,2.4961
61.7198,2.13077
61.7811,2.22743
61.8425,2.62983
61.9038,2.75636
61.9651,2.80495
62.0264,2.7131
62.0877,2.65094
62.1491,2.7348
62.2104,2.66953
62.2717,2.68604
62.333,2.55342
62.3943,2.79946
62.4556,2.7054
62.517,2.45006
62.5783,2.3772
62.6396,2.38611
62.7009,2.31881
62.7622,2.04858
62.8236,2.01984
62.8849,1.86802
62.9462,1.70769
63.0075,1.78193
63.0688,1.71745
63.1301,1.61497
63.1915,1.58731
63.2528,1.36366
63.3141,1.80512
63.3754,1.74676
63.4367,2.15385
63.4981,2.05419
63.5594,2.3922
63.6207,2.51165
63.682,2.57398
63.7433,2.85698
63.8047,3.06204
63.866,3.20652
63.9273,3.45881
63.9886,3.10538
64.0499,3.30075
64.1112,3.35914
64.1726,2.91945
64.2339,3.17265
64.2952,2.98679
64.3565,2.89139
64.4178,2.94374
64.4792,3.01884
64.5405,3.01947
64.6018,3.00813
64.6631,3.1185
64.7244,3.19953
64.7858,3.28943
64.8471,3.06006
64.9084,3.62775
64.9697,3.85707
65.031,3.82443
65.0923,4.08884
65.1537,4.06871
65.215,4.29876
65.2763,4.45954
65.3376,4.70732
65.3989,5.26082
65.4603,5.33187
65.5216,5.63054
65.5829,5.6273
65.6442,5.89854
65.7055,6.31928
65.7668,6.74366
65.8282,7.16128
65.8895,7.54436
65.9508,8.19325
66.0121,9.04544
66.0734,10.4134
66.1348,11.3233
66.1961,12.1969
66.2574,13.8223
66.3187,15.0209
66.38,16.1554
66.4414,17.212
66.5027,17.3261
66.564,17.8205
66.6253,18.079
66.6866,18.5929
66.7479,19.0654
66.8093,19.6664
66.8706,21.5871
66.9319,21.666
66.9932,22.7329
67.0545,23.6628
67.1159,24.4089
67.1772,25.0388
67.2385,25.1967
67.2998,24.7662
67.3611,23.6849
67.4225,22.3312
67.4838,20.5384
67.5451,18.3378
67.6064,16.4291
67.6677,14.4824
67.729,12.4611
67.7904,10.4366
67.8517,9.01647
67.913,7.59302
67.9743,6.33468
68.0356,5.56437
68.097,4.8359
68.1583,3.83678
68.2196,3.1868
68.2809,2.92763
68.3422,2.561
68.4036,2.11816
68.4649,2.0071
68.5262,1.97435
68.5875,1.30288
68.6488,1.02917
68.7101,1.0421
68.7715,0.904161
68.8328,0.863629
68.8941,0.845848
68.9554,0.602553
69.0167,0.664995
69.0781,0.375187
69.1394,0.536948
69.2007,0.332571
69.262,0.326291
69.3233,0.273318
69.3846,0.250039
69.446,-0.04215684
69.5073,0.176245
69.5686,0.198648
69.6299,0.342758
69.6912,0.160661
69.7526,0.009994945
69.8139,0.123398
69.8752,-0.183156
69.9365,0.157235
69.9978,-0.111517