File: Carboncapture/XRD data/Pt_al2o3_300C.csv
2 theta,Intensity
5.0001,-0.0500771
5.06142,-0.0367624
5.12274,0.0723831
5.18406,0.0290153
5.24537,-0.0106961
5.30669,0.0782489
5.36801,0.0475864
5.42933,-0.0367114
5.49065,0.03021669
5.55197,0.08170395
5.61329,-0.0315552
5.6746,-0.017894
5.73592,0.009840249
5.79724,0.0360226
5.85856,0.140514
5.91988,-0.102033
5.9812,0.0330077
6.04252,0.0175235
6.10384,-0.068957
6.16515,0.006205064
6.22647,-0.008726515
6.28779,0.0199289
6.34911,0.0696018
6.41043,0.003139379
6.47175,0.0184584
6.53307,0.0356977
6.59438,-0.0458371
6.6557,-0.002187772
6.71702,0.0537985
6.77834,0.03878845
6.83966,0.0187542
6.90098,-0.002831945
6.9623,0.0295855
7.02361,0.0326733
7.08493,-0.009193693
7.14625,0.018568
7.20757,0.0517221
7.26889,0.0694355
7.33021,-0.0515558
7.39153,0.0672203
7.45284,0.0420834
7.51416,0.13345
7.57548,-0.002429469
7.6368,0.0702084
7.69812,0.110044
7.75944,0.0163839
7.82076,0.0201299
7.88208,-0.0176066
7.94339,0.0507438
8.00471,-0.0664855
8.06603,-0.0255444
8.12735,-0.0972857
8.18867,-0.0620815
8.24999,0.0826819
8.31131,0.008879405
8.37262,0.002969456
8.43394,0.05106313
8.49526,-0.01697846
8.55658,0.132178
8.6179,0.0801298
8.67922,0.000487955
8.74054,0.103322
8.80185,0.0882846
8.86317,0.0682231
8.92449,0.0622346
8.98581,-0.0598891
9.04713,0.15277
9.10845,-0.0111224
9.16977,0.0664885
9.23108,0.14602
9.2924,-0.006903678
9.35372,0.0521626
9.41504,0.01071862
9.47636,0.127445
9.53768,0.006508191
9.599,0.0871445
9.66032,0.0186595
9.72163,0.106609
9.78295,-0.003174739
9.84427,-0.02076
9.90559,-0.00864724
9.96691,-0.0223919
10.0282,0.0977281
10.0895,0.001018408
10.1509,-2.10E-05
10.2122,0.0442627
10.2735,0.0401194
10.3348,0.0327653
10.3961,0.0759812
10.4575,-0.0820077
10.5188,0.08831264
10.5801,0.053956
10.6414,0.0874919
10.7027,0.0326704
10.7641,0.120394
10.8254,0.0815658
10.8867,0.04118568
10.948,0.0877953
11.0093,0.0807696
11.0706,0.00448362
11.132,0.0603263
11.1933,0.199686
11.2546,0.202078
11.3159,0.136945
11.3772,0.104983
11.4386,0.0940384
11.4999,0.170083
11.5612,0.0431876
11.6225,0.209879
11.6838,0.203143
11.7451,0.104577
11.8065,0.179807
11.8678,0.243068
11.9291,0.330819
11.9904,0.241671
12.0517,0.260346
12.1131,0.197607
12.1744,0.129845
12.2357,0.300114
12.297,0.342095
12.3583,0.370371
12.4197,0.322443
12.481,0.403171
12.5423,0.359083
12.6036,0.422818
12.6649,0.34264
12.7262,0.37723
12.7876,0.471031
12.8489,0.231684
12.9102,0.213007
12.9715,0.345555
13.0328,0.408844
13.0942,0.423705
13.1555,0.343265
13.2168,0.457453
13.2781,0.340922
13.3394,0.549229
13.4008,0.335844
13.4621,0.212922
13.5234,0.361017
13.5847,0.313116
13.646,0.428593
13.7073,0.370643
13.7687,0.425725
13.83,0.404602
13.8913,0.3229
13.9526,0.463604
14.0139,0.319769
14.0753,0.523341
14.1366,0.470153
14.1979,0.345969
14.2592,0.221969
14.3205,0.372458
14.3818,0.629034
14.4432,0.434406
14.5045,0.363226
14.5658,0.497091
14.6271,0.261348
14.6884,0.263637
14.7498,0.299097
14.8111,0.235782
14.8724,0.24904
14.9337,0.285052
14.995,0.366387
15.0564,0.286447
15.1177,0.333428
15.179,0.387538
15.2403,0.271693
15.3016,0.178601
15.3629,0.123888
15.4243,0.0658875
15.4856,0.322307
15.5469,0.292452
15.6082,0.274934
15.6695,0.243712
15.7309,0.203993
15.7922,0.329389
15.8535,0.300455
15.9148,0.263025
15.9761,0.482723
16.0375,0.572397
16.0988,0.545936
16.1601,0.563062
16.2214,0.540442
16.2827,0.391269
16.344,0.303045
16.4054,0.29313
16.4667,0.212218
16.528,0.117602
16.5893,0.27317
16.6506,0.100797
16.712,0.0848585
16.7733,0.0829929
16.8346,0.0535337
16.8959,-0.001783023
16.9572,0.102807
17.0185,0.0218167
17.0799,0.138927
17.1412,0.0392086
17.2025,-0.0221316
17.2638,-0.154468
17.3251,0.0224071
17.3865,-0.0713668
17.4478,0.159696
17.5091,0.0419853
17.5704,-0.0564443
17.6317,0.0814214
17.6931,-0.0791399
17.7544,-0.036392
17.8157,-0.11846
17.877,0.0548647
17.9383,0.153721
17.9996,0.0478998
18.061,-0.0664175
18.1223,-0.0937451
18.1836,0.0353118
18.2449,-0.0854472
18.3062,0.0491864
18.3676,0.203101
18.4289,0.0915754
18.4902,0.192039
18.5515,0.134701
18.6128,0.252895
18.6742,0.386897
18.7355,0.458584
18.7968,0.417607
18.8581,0.468829
18.9194,0.591416
18.9807,0.656895
19.0421,0.66353
19.1034,0.880419
19.1647,0.835339
19.226,1.22794
19.2873,0.900246
19.3487,0.888705
19.41,1.07874
19.4713,0.885273
19.5326,1.00102
19.5939,0.870425
19.6552,0.908416
19.7166,0.854577
19.7779,0.65509
19.8392,0.540855
19.9005,0.451111
19.9618,0.434467
20.0232,0.404119
20.08448,0.302774
20.1458,0.319669
20.2071,0.20654
20.2684,0.213387
20.3298,0.173543
20.3911,0.15298
20.4524,0.115241
20.5137,0.0776851
20.575,0.1983
20.6363,0.126391
20.6977,0.0702905
20.759,0.0265273
20.8203,0.104476
20.8816,0.004166563
20.9429,0.0714618
21.0043,-0.0329338
21.0656,0.144105
21.1269,0.0522304
21.1882,0.0629706
21.2495,0.0843118
21.3109,0.001670426
21.3722,0.0285883
21.4335,0.01749581
21.4948,0.0777681
21.5561,0.16253
21.6174,0.0877541
21.6788,-0.0614905
21.7401,-0.0161065
21.8014,-0.0365105
21.8627,-0.006383148
21.924,0.0360812
21.9854,0.0162297
22.0467,-0.0433682
22.108,0.195829
22.1693,-0.160275
22.2306,0.0966516
22.292,0.02034049
22.3533,-0.002144705
22.4146,0.0640959
22.4759,0.0992708
22.5372,0.108588
22.5985,0.173645
22.6599,0.183331
22.7212,0.0282702
22.7825,0.194574
22.8438,0.10759
22.9051,-0.0521262
22.9665,0.149283
23.0278,0.018325
23.0891,0.13408
23.1504,-0.0711624
23.2117,0.0762104
23.273,-0.0505381
23.3344,-0.116339
23.3957,0.0871424
23.457,-0.0546786
23.5183,-0.0782599
23.5796,0.0179518
23.641,0.0136532
23.7023,-0.0234474
23.7636,-0.008280387
23.8249,0.116446
23.8862,0.001772785
23.9476,-0.0832021
24.0089,0.0993682
24.0702,-0.226558
24.1315,0.0520573
24.1928,-0.0504382
24.2541,0.138374
24.3155,-0.004227139
24.3768,0.162384
24.4381,0.09480397
24.4994,-0.0385639
24.5607,-0.003344871
24.6221,0.0789334
24.6834,-0.07645144
24.7447,-0.042416
24.806,0.0786093
24.8673,0.161624
24.9287,0.19274
24.99,0.0139706
25.0513,0.114899
25.1126,0.0996925
25.1739,0.174948
25.2352,-0.01697385
25.2966,0.107261
25.3579,0.0545965
25.4192,-0.0933698
25.4805,0.0227369
25.5418,-0.0363193
25.6032,0.0541141
25.6645,-0.02193496
25.7258,0.169561
25.7871,-0.150911
25.8484,0.186787
25.9097,-0.0360949
25.9711,0.0502353
26.0324,-0.0663754
26.0937,0.0741426
26.155,-0.03515524
26.2163,-0.0383661
26.2777,0.08881551
26.339,0.112015
26.4003,-0.0173798
26.4616,0.150775
26.5229,0.069359
26.5843,0.0714605
26.6456,0.0806906
26.7069,-0.0991312
26.7682,0.0424118
26.8295,0.151153
26.8908,0.185425
26.9522,-0.125604
27.0135,0.0774392
27.0748,0.108792
27.1361,0.129912
27.1974,-0.05885285
27.2588,0.118886
27.3201,0.114517
27.3814,0.190193
27.4427,0.147998
27.504,0.187585
27.5654,0.251661
27.6267,0.307241
27.688,0.0557129
27.7493,0.408536
27.8106,0.348349
27.8719,0.225846
27.9333,0.407347
27.9946,0.302573
28.0559,0.347289
28.1172,0.218579
28.1785,0.27408
28.2399,0.329766
28.3012,0.279732
28.3625,0.318425
28.4238,0.404177
28.4851,0.486641
28.5464,0.286303
28.6078,0.523649
28.6691,0.410485
28.7304,0.417296
28.7917,0.349639
28.853,0.528694
28.9144,0.59335
28.9757,0.599163
29.037,0.700645
29.0983,0.597451
29.1596,0.86076
29.221,0.823906
29.2823,0.7889728
29.3436,0.743807
29.4049,0.754381
29.4662,0.954375
29.5275,0.783025
29.5889,1.12575
29.6502,0.992962
29.7115,1.33779
29.7728,0.976205
29.8341,1.40994
29.8955,1.34386
29.9568,1.39082
30.0181,1.93448
30.0794,2.02521
30.1407,2.15605
30.2021,2.04575
30.2634,2.5971
30.3247,2.69377
30.386,2.93993
30.4473,3.26613
30.5086,3.69843
30.57,4.12396
30.6313,4.73891
30.6926,5.18391
30.7539,5.66207
30.8152,6.48244
30.8766,6.75959
30.9379,7.52824
30.9992,8.11999
31.0605,8.13553
31.1218,8.76585
31.1831,8.94843
31.2445,8.66071
31.3058,8.72734
31.3671,8.23513
31.4284,7.92886
31.4897,7.75472
31.5511,7.62591
31.6124,7.40006
31.6737,7.24731
31.735,7.06176
31.7963,7.18715
31.8577,7.13912
31.919,6.81697
31.9803,6.88042
32.0416,7.02565
32.1029,7.06516
32.1642,7.48333
32.2256,7.91383
32.2869,8.65355
32.3482,9.6799
32.4095,11.0311
32.4708,12.8564
32.5322,15.3139
32.5935,17.3861
32.6548,18.3787
32.7161,17.828
32.7774,16.4026
32.8388,13.1769
32.9001,11.4063
32.9614,9.04043
33.0227,7.39347
33.084,6.13731
33.1453,5.67822
33.2067,4.87382
33.268,4.91683
33.3293,4.37843
33.3906,4.00514
33.4519,3.94627
33.5133,3.79731
33.5746,3.6902
33.6359,3.4114
33.6972,3.27167
33.7585,3.46546
33.8199,3.21499
33.8812,3.33102
33.9425,3.43682
34.0038,3.18517
34.0651,3.61078
34.1264,3.68936
34.1878,3.67263
34.2491,3.58317
34.3104,3.8307
34.3717,3.75897
34.433,4.16833
34.4944,4.26711
34.5557,4.24628
34.617,4.30376
34.6783,4.81975
34.7396,4.16059
34.8009,4.62139
34.8623,4.75774
34.9236,4.71718
34.9849,4.65944
35.0462,4.57932
35.1075,4.82404
35.1689,4.81547
35.2302,4.68208
35.2915,4.83533
35.3528,4.86377
35.4141,5.09899
35.4755,4.99759
35.5368,5.01964
35.5981,5.63736
35.6594,5.57991
35.7207,6.08515
35.782,6.11488
35.8434,6.40173
35.9047,7.24433
35.966,7.62704
36.0273,8.24952
36.0886,8.64475
36.15,9.09746
36.2113,9.80556
36.2726,10.6163
36.3339,11.2779
36.3952,11.8702
36.4566,12.52
36.5179,12.5763
36.5792,13.2091
36.6405,13.0712
36.7018,12.7739
36.7631,12.6763
36.8245,12.5113
36.8858,12.2787
36.9471,11.7564
37.0084,10.9651
37.0697,10.971
37.1311,10.3242
37.1924,10.0352
37.2537,9.73431
37.315,9.1367
37.3763,9.25975
37.4376,7.94029
37.499,7.80156
37.5603,7.65781
37.6216,7.85626
37.6829,7.57746
37.7442,7.10093
37.8056,7.24264
37.8669,7.19009
37.9282,7.03703
37.9895,7.27478
38.0508,7.07521
38.1122,7.17096
38.1735,7.26517
38.2348,7.6165
38.2961,7.56003
38.3574,8.02284
38.4187,8.20285
38.4801,8.73721
38.5414,8.92279
38.6027,9.13461
38.664,9.84139
38.7253,10.2758
38.7867,10.4135
38.848,10.9906
38.9093,11.1096
38.9706,10.8902
39.0319,11.2093
39.0933,11.3184
39.1546,11.4173
39.2159,10.9104
39.2772,11.2857
39.3385,10.9147
39.3998,11.4119
39.4612,11.3103
39.5225,11.2575
39.5838,10.9462
39.6451,11.0223
39.7064,10.5343
39.7678,9.54298
39.8291,9.04841
39.8904,8.67381
39.9517,7.8619
40.013,7.10399
40.0743,6.59626
40.1357,5.71545
40.197,5.41816
40.2583,4.98391
40.3196,4.99081
40.3809,4.13157
40.4423,3.93051
40.5036,3.37025
40.5649,3.28934
40.6262,2.67564
40.6875,2.6385
40.7489,2.4453
40.8102,2.46409
40.8715,2.25737
40.9328,2.12201
40.9941,1.80281
41.0554,1.52894
41.1168,1.71531
41.1781,1.22479
41.2394,1.11987
41.3007,1.22173
41.362,1.11891
41.4234,0.969406
41.4847,0.78536
41.546,0.688304
41.6073,0.638307
41.6686,0.515578
41.73,0.681227
41.7913,0.617894
41.8526,0.401968
41.9139,0.556017
41.9752,0.290111
42.0365,0.541751
42.0979,0.173783
42.1592,0.302527
42.2205,-0.0789614
42.2818,0.234179
42.3431,0.162087
42.4045,0.236012
42.4658,0.0306076
42.5271,0.031203
42.5884,-0.008338859
42.6497,-0.02339094
42.711,-0.0643005
42.7724,0.202266
42.8337,0.121794
42.895,-0.0296741
42.9563,-0.0467212
43.0176,0.011347
43.079,0.10953
43.1403,0.0967858
43.2016,0.129365
43.2629,0.193378
43.3242,0.122159
43.3856,0.127512
43.4469,0.287564
43.5082,0.433911
43.5695,0.408568
43.6308,0.445908
43.6921,0.545933
43.7535,0.791975
43.8148,0.95834
43.8761,1.01899
43.9374,1.40273
43.9987,1.39951
44.0601,2.00932
44.1214,2.61237
44.1827,2.792
44.244,3.70965
44.3053,4.80631
44.3667,5.75558
44.428,6.62865
44.4893,8.12343
44.5506,9.39444
44.6119,11.0441
44.6732,12.3068
44.7346,13.1096
44.7959,13.7581
44.8572,14.4397
44.9185,14.7761
44.9798,14.7689
45.0412,14.8434
45.1025,15.0987
45.1638,15.2327
45.2251,15.471
45.2864,15.1435
45.3478,14.6374
45.4091,14.0186
45.4704,13.8688
45.5317,13.2313
45.593,12.6252
45.6543,11.429
45.7157,11.0751
45.777,10.0893
45.8383,9.50658
45.8996,8.67573
45.9609,8.39021
46.0223,7.97119
46.0836,7.60271
46.1449,7.87329
46.2062,7.40622
46.2675,7.41675
46.3288,7.55595
46.3902,7.53213
46.4515,7.70468
46.5128,7.76978
46.5741,7.52429
46.6354,7.12274
46.6968,7.08248
46.7581,7.26116
46.8194,7.30461
46.8807,6.42289
46.942,6.49274
47.0034,6.1739
47.0647,6.02884
47.126,5.93953
47.1873,6.0379
47.2486,6.22326
47.3099,6.15533
47.3713,6.26293
47.4326,6.32037
47.4939,5.73043
47.5552,5.63199
47.6165,5.07192
47.6779,4.64399
47.7392,3.7336
47.8005,3.34076
47.8618,2.74671
47.9231,2.28132
47.9845,1.8734
48.0458,1.62886
48.1071,1.24388
48.1684,1.02402
48.2297,0.920661
48.291,0.812277
48.3524,0.544354
48.4137,0.406825
48.475,0.276424
48.5363,0.177457
48.5976,0.29916
48.659,0.125909
48.7203,0.225411
48.7816,0.000445174
48.8429,0.0586492
48.9042,0.0597458
48.9655,0.0315126
49.0269,0.151033
49.0882,-0.0521789
49.1495,0.156252
49.2108,0.003755165
49.2721,-0.0634876
49.3335,-0.175867
49.3948,0.0275467
49.4561,-0.0865638
49.5174,0.0199959
49.5787,-0.173607
49.6401,0.125155
49.7014,-0.004718323
49.7627,0.07045385
49.824,0.0919908
49.8853,0.190101
49.9466,0.203325
50.008,0.348679
50.0693,0.443869
50.1306,0.685077
50.1919,0.851816
50.2532,1.05346
50.3146,1.06606
50.3759,1.47119
50.4372,1.72895
50.4985,1.67439
50.5598,1.61306
50.6212,1.88179
50.6825,2.02743
50.7438,1.43367
50.8051,1.61094
50.8664,1.53664
50.9277,1.30802
50.9891,1.20112
51.0504,0.882587
51.1117,1.03473
51.173,0.907539
51.2343,1.03227
51.2957,0.702325
51.357,0.888188
51.4183,0.582917
51.4796,0.435815
51.5409,0.469454
51.6022,0.386957
51.6636,0.0112413
51.7249,0.290224
51.7862,0.124946
51.8475,-0.097439
51.9088,0.0651978
51.9702,-0.0167729
52.0315,-0.0377955
52.0928,0.167061
52.1541,-0.006371508
52.2154,0.129408
52.2768,0.178567
52.3381,0.0907569
52.3994,0.381603
52.4607,0.110134
52.522,0.132251
52.5833,0.244831
52.6447,0.352386
52.706,0.0712366
52.7673,0.193049
52.8286,0.164004
52.8899,0.0952128
52.9513,-0.0167971
53.0126,0.0310994
53.0739,0.0757078
53.1352,0.002444885
53.1965,0.0908245
53.2579,-0.02720902
53.3192,-0.000961093
53.3805,-0.01098732
53.4418,-0.135413
53.5031,0.0917585
53.5644,0.0517528
53.6258,0.0362369
53.6871,0.050419
53.7484,0.0474242
53.8097,0.18003
53.871,-0.0257213
53.9324,-0.0281636
53.9937,-0.0599356
54.055,0.0753494
54.1163,0.124425
54.1776,0.350768
54.2389,0.01826787
54.3003,0.005396102
54.3616,-0.0350693
54.4229,-0.000697675
54.4842,-0.129336
54.5455,0.0929667
54.6069,-0.101213
54.6682,0.159653
54.7295,0.0856336
54.7908,0.0100622
54.8521,0.134328
54.9135,-0.09365296
54.9748,0.06743932
55.0361,0.230452
55.0974,0.0620514
55.1587,0.048349
55.22,-0.0971137
55.2814,-0.0881085
55.3427,0.141567
55.404,0.067607
55.4653,-0.0391547
55.5266,0.149407
55.588,0.0430131
55.6493,0.0531233
55.7106,0.112029
55.7719,0.0443824
55.8332,0.115809
55.8946,0.0954059
55.9559,0.101229
56.0172,0.178416
56.0785,0.13426
56.1398,0.362858
56.2011,0.152403
56.2625,0.214702
56.3238,0.318852
56.3851,0.147145
56.4464,0.362775
56.5077,0.325116
56.5691,0.407433
56.6304,0.314588
56.6917,0.227135
56.753,0.169379
56.8143,0.245489
56.8757,0.288797
56.937,0.320136
56.9983,0.32909
57.0596,0.218436
57.1209,0.23123
57.1822,0.117473
57.2436,0.0837605
57.3049,0.10926
57.3662,0.128
57.4275,0.10352
57.4888,0.0774894
57.5502,0.305115
57.6115,0.133619
57.6728,0.0355005
57.7341,0.0770096
57.7954,0.0909251
57.8567,0.0390525
57.9181,0.0186141
57.9794,0.0608599
58.0407,-0.0859462
58.102,0.099029
58.1633,0.0654385
58.2247,0.0754349
58.286,0.281796
58.3473,0.417161
58.4086,0.306182
58.4699,0.697123
58.5313,0.468457
58.5926,0.87192
58.6539,0.721747
58.7152,0.750578
58.7765,1.07994
58.8378,0.93032
58.8992,0.987482
58.9605,1.35212
59.0218,1.02597
59.0831,1.06806
59.1444,1.49748
59.2058,1.60938
59.2671,1.82564
59.3284,1.9518
59.3897,2.19967
59.451,2.55015
59.5124,3.09353
59.5737,3.23084
59.635,3.58709
59.6963,3.99387
59.7576,4.09006
59.8189,4.25068
59.8803,4.42711
59.9416,4.68185
60.0029,4.17809
60.0642,4.1693
60.1255,4.14334
60.1869,3.80159
60.2482,3.68052
60.3095,3.51969
60.3708,3.33474
60.4321,3.4972
60.4934,3.29527
60.5548,2.81226
60.6161,2.72007
60.6774,2.73396
60.7387,2.73067
60.8,2.76403
60.8614,2.59792
60.9227,2.70109
60.984,2.32701
61.0453,2.32117
61.1066,2.42663
61.168,2.33957
61.2293,2.36379
61.2906,2.54099
61.3519,2.64024
61.4132,2.52613
61.4745,2.71255
61.5359,2.53111
61.5972,2.32207
61.6585,2.71911
61.7198,2.57468
61.7811,2.76376
61.8425,2.67178
61.9038,2.83171
61.9651,2.846
62.0264,2.92644
62.0877,3.06783
62.1491,3.11913
62.2104,3.21749
62.2717,3.18929
62.333,2.97031
62.3943,3.1404
62.4556,3.09019
62.517,2.94815
62.5783,2.67608
62.6396,2.53441
62.7009,2.37208
62.7622,2.38009
62.8236,2.13827
62.8849,2.18483
62.9462,1.93297
63.0075,1.93824
63.0688,1.62424
63.1301,2.09342
63.1915,1.92389
63.2528,1.90732
63.3141,2.2451
63.3754,2.12474
63.4367,2.17816
63.4981,2.43664
63.5594,2.7144
63.6207,2.7597
63.682,3.4406
63.7433,3.27967
63.8047,3.63282
63.866,3.68059
63.9273,3.54105
63.9886,3.92426
64.0499,3.73301
64.1112,3.85964
64.1726,3.76424
64.2339,3.46763
64.2952,3.36045
64.3565,3.53469
64.4178,3.42614
64.4792,3.69798
64.5405,3.58632
64.6018,3.68665
64.6631,3.62918
64.7244,3.72467
64.7858,4.09813
64.8471,4.05162
64.9084,4.16156
64.9697,4.29424
65.031,4.28996
65.0923,4.57406
65.1537,4.58577
65.215,4.85114
65.2763,5.22954
65.3376,5.72097
65.3989,5.84453
65.4603,5.9266
65.5216,6.11824
65.5829,5.95589
65.6442,6.75554
65.7055,7.20293
65.7668,7.29808
65.8282,7.77363
65.8895,8.46637
65.9508,9.11589
66.0121,9.69094
66.0734,10.7853
66.1348,12.0204
66.1961,13.5891
66.2574,14.9166
66.3187,16.8311
66.38,17.6017
66.4414,18.56
66.5027,19.1609
66.564,19.5796
66.6253,20.0783
66.6866,20.5738
66.7479,21.4497
66.8093,22.0445
66.8706,23.051
66.9319,24.1514
66.9932,25.488
67.0545,26.0836
67.1159,27.0213
67.1772,28.027
67.2385,27.7637
67.2998,27.5527
67.3611,26.9182
67.4225,25.0305
67.4838,23.4329
67.5451,21.2556
67.6064,19.1862
67.6677,16.912
67.729,14.3811
67.7904,12.3799
67.8517,10.6115
67.913,9.00306
67.9743,7.80276
68.0356,6.52452
68.097,5.82979
68.1583,4.63178
68.2196,4.09714
68.2809,3.54707
68.3422,2.87738
68.4036,2.72177
68.4649,2.11496
68.5262,2.00485
68.5875,1.76299
68.6488,1.53346
68.7101,1.10447
68.7715,0.962117
68.8328,0.951893
68.8941,0.912339
68.9554,0.883387
69.0167,0.736562
69.0781,0.541311
69.1394,0.457355
69.2007,0.326709
69.262,0.270899
69.3233,0.399301
69.3846,0.283096
69.446,0.161867
69.5073,0.250891
69.5686,0.300169
69.6299,0.273242
69.6912,0.253444
69.7526,-0.05262836
69.8139,-0.000877648
69.8752,0.115293
69.9365,0.09623187
69.9978,-0.0983473