File: Carboncapture/XRD data/raw_alumina.csv
2 theta,Intensity
5.0001,-0.0474184
5.06142,-0.0381766
5.12274,0.01482222
5.18406,0.0354549
5.24537,0.0371673
5.30669,0.0546819
5.36801,-0.0144321
5.42933,0.008644814
5.49065,0.0544682
5.55197,0.0935243
5.61329,0.0528962
5.6746,0.0905703
5.73592,-0.0625509
5.79724,0.0588105
5.85856,0.0188907
5.91988,0.0416478
5.9812,0.0489571
6.04252,-0.007792751
6.10384,-0.0313794
6.16515,0.0372248
6.22647,0.114687
6.28779,-0.002118857
6.34911,0.002780422
6.41043,0.008406229
6.47175,0.0916969
6.53307,0.0796786
6.59438,0.133809
6.6557,0.0266591
6.71702,-0.0473281
6.77834,0.109764
6.83966,-0.0350492
6.90098,0.052953
6.9623,0.0543267
7.02361,0.125322
7.08493,-0.0371888
7.14625,0.0501254
7.20757,-0.0481473
7.26889,-0.0403401
7.33021,0.0666024
7.39153,0.0990692
7.45284,-0.0366897
7.51416,-0.0750494
7.57548,0.0343375
7.6368,0.0154291
7.69812,-0.0241355
7.75944,0.094463
7.82076,0.0882386
7.88208,0.0735106
7.94339,0.111043
8.00471,-0.0300669
8.06603,-0.0546804
8.12735,0.05697635
8.18867,0.007351829
8.24999,0.0481821
8.31131,0.004120033
8.37262,0.0678739
8.43394,0.00854086
8.49526,0.0223016
8.55658,-0.0557746
8.6179,-0.0833265
8.67922,-0.0192674
8.74054,-0.027948
8.80185,-0.1267293
8.86317,-0.0136895
8.92449,-0.0532504
8.98581,-0.0114696
9.04713,0.0313591
9.10845,0.0413789
9.16977,0.0637284
9.23108,-0.0404811
9.2924,0.0152087
9.35372,-0.0886468
9.41504,0.007327628
9.47636,0.0108052
9.53768,0.015866
9.599,0.0766594
9.66032,0.0213104
9.72163,-0.007588489
9.78295,0.0210971
9.84427,-0.0385819
9.90559,-0.139751
9.96691,0.03468586
10.0282,0.0304799
10.0895,0.0820065
10.1509,0.0521129
10.2122,0.107466
10.2735,0.0640374
10.3348,0.0693972
10.3961,0.0193785
10.4575,-0.110005
10.5188,-0.0298497
10.5801,0.003607318
10.6414,0.06675531
10.7027,-0.0574197
10.7641,-0.078987
10.8254,0.156894
10.8867,0.0613553
10.948,0.0632156
11.0093,0.0322668
11.0706,-0.00892156
11.132,0.167081
11.1933,-0.0178505
11.2546,0.002256139
11.3159,0.0937204
11.3772,0.131542
11.4386,0.04454113
11.4999,0.105287
11.5612,0.176626
11.6225,0.0762667
11.6838,0.139279
11.7451,0.0965663
11.8065,0.0765997
11.8678,0.127991
11.9291,0.132684
11.9904,0.132345
12.0517,0.146073
12.1131,0.153033
12.1744,0.113296
12.2357,0.181374
12.297,0.187129
12.3583,0.121881
12.4197,0.270352
12.481,0.149902
12.5423,0.329976
12.6036,0.463353
12.6649,0.339962
12.7262,0.23411
12.7876,0.282948
12.8489,0.281616
12.9102,0.429767
12.9715,0.341984
13.0328,0.217919
13.0942,0.217295
13.1555,0.357474
13.2168,0.338107
13.2781,0.509889
13.3394,0.247821
13.4008,0.576208
13.4621,0.375257
13.5234,0.398442
13.5847,0.319374
13.646,0.308191
13.7073,0.291977
13.7687,0.246425
13.83,0.400704
13.8913,0.312104
13.9526,0.326112
14.0139,0.515644
14.0753,0.356395
14.1366,0.254614
14.1979,0.435997
14.2592,0.390126
14.3205,0.396515
14.3818,0.281554
14.4432,0.41677
14.5045,0.303898
14.5658,0.290163
14.6271,0.276604
14.6884,0.365653
14.7498,0.319462
14.8111,0.431435
14.8724,0.517543
14.9337,0.360772
14.995,0.311817
15.0564,0.339428
15.1177,0.216175
15.179,0.192057
15.2403,0.374713
15.3016,0.323171
15.3629,0.422848
15.4243,0.274439
15.4856,0.272039
15.5469,0.377456
15.6082,0.389299
15.6695,0.279792
15.7309,0.324975
15.7922,0.366864
15.8535,0.634624
15.9148,0.598742
15.9761,0.635953
16.0375,0.751466
16.0988,0.565073
16.1601,0.651427
16.2214,0.645944
16.2827,0.625012
16.344,0.42023
16.4054,0.411806
16.4667,0.535503
16.528,0.529169
16.5893,0.6358591
16.6506,0.36599
16.712,0.332409
16.7733,0.486506
16.8346,0.41682
16.8959,0.349049
16.9572,0.310968
17.0185,0.361605
17.0799,0.250962
17.1412,0.213412
17.2025,0.413886
17.2638,0.223913
17.3251,0.369186
17.3865,0.332344
17.4478,0.339082
17.5091,0.481414
17.5704,0.307951
17.6317,0.233623
17.6931,0.390375
17.7544,0.394526
17.8157,0.593299
17.877,0.432873
17.9383,0.656306
17.9996,0.775748
18.061,0.935299
18.1223,1.32072
18.1836,1.68722
18.2449,1.666748
18.3062,1.23326
18.3676,1.00828
18.4289,0.856388
18.4902,0.803636
18.5515,0.959394
18.6128,0.858385
18.6742,0.662067
18.7355,0.804467
18.7968,0.776906
18.8581,0.673133
18.9194,0.890717
18.9807,0.83591
19.0421,0.920168
19.1034,1.03585
19.1647,1.21595
19.226,1.2365
19.2873,1.33015
19.3487,1.1514
19.41,1.20548
19.4713,1.23542
19.5326,1.26206
19.5939,1.19166
19.6552,1.05721
19.7166,1.12084
19.7779,0.927712
19.8392,0.717396
19.9005,0.873578
19.9618,0.774727
20.0232,0.891332
20.08448,0.971655
20.1458,1.22403
20.2071,1.23526
20.2684,0.809174
20.3298,0.917983
20.3911,0.721414
20.4524,0.537174
20.5137,0.363528
20.575,0.266449
20.6363,0.206004
20.6977,0.334973
20.759,0.0856467
20.8203,0.204553
20.8816,0.22815
20.9429,0.422063
21.0043,0.246361
21.0656,0.110767
21.1269,0.006600569
21.1882,0.1665
21.2495,0.211992
21.3109,0.0909954
21.3722,0.100384
21.4335,0.0613383
21.4948,-0.02440525
21.5561,-0.103218
21.6174,0.0532937
21.6788,0.003385293
21.7401,0.257473
21.8014,-0.0959003
21.8627,0.255764
21.924,0.01038335
21.9854,0.05684631
22.0467,-0.009360908
22.108,-0.0146272
22.1693,0.219867
22.2306,0.0534964
22.292,0.0626501
22.3533,0.146634
22.4146,-0.000108498
22.4759,-0.0841736
22.5372,-0.0882006
22.5985,-0.0351549
22.6599,0.137859
22.7212,-0.164644
22.7825,0.0278221
22.8438,-0.026063
22.9051,-0.0381043
22.9665,0.05419803
23.0278,0.169247
23.0891,-0.02281888
23.1504,0.103001
23.2117,-0.0244748
23.273,0.0357266
23.3344,-0.004589275
23.3957,-0.001325373
23.457,0.0785045
23.5183,-0.004683101
23.5796,0.0407786
23.641,-0.0521453
23.7023,0.130066
23.7636,0.124954
23.8249,0.0264542
23.8862,-0.0680272
23.9476,0.0685712
24.0089,0.120277
24.0702,0.128758
24.1315,0.0749149
24.1928,0.0125687
24.2541,-0.0339754
24.3155,0.100213
24.3768,0.0939536
24.4381,0.181621
24.4994,-0.03956194
24.5607,-0.08174861
24.6221,0.0364453
24.6834,0.102105
24.7447,0.0203733
24.806,0.110693
24.8673,0.204662
24.9287,-0.034525
24.99,0.184798
25.0513,0.0154096
25.1126,0.306267
25.1739,0.0122329
25.2352,0.01872258
25.2966,0.219834
25.3579,0.0235526
25.4192,-0.03192658
25.4805,0.11416
25.5418,0.114591
25.6032,0.0596427
25.6645,0.169802
25.7258,0.184653
25.7871,0.145861
25.8484,0.0117599
25.9097,0.0983221
25.9711,0.317006
26.0324,0.0167693
26.0937,0.0986543
26.155,0.165091
26.2163,0.0389971
26.2777,-0.0504617
26.339,-0.0911324
26.4003,-0.0743344
26.4616,0.0902101
26.5229,0.0188205
26.5843,0.122955
26.6456,0.321017
26.7069,0.468908
26.7682,0.375658
26.8295,0.294737
26.8908,0.23309
26.9522,0.366065
27.0135,0.349911
27.0748,0.195045
27.1361,0.316398
27.1974,0.429248
27.2588,0.15165
27.3201,0.421103
27.3814,0.282748
27.4427,0.384153
27.504,0.497888
27.5654,0.356591
27.6267,0.515819
27.688,0.48946
27.7493,0.661195
27.8106,0.631717
27.8719,0.473945
27.9333,0.585447
27.9946,0.619001
28.0559,0.784676
28.1172,0.580737
28.1785,0.826628
28.2399,0.692487
28.3012,0.50644
28.3625,0.63307
28.4238,0.841475
28.4851,0.893806
28.5464,0.979301
28.6078,0.985111
28.6691,1.04665
28.7304,1.13962
28.7917,0.847355
28.853,1.04485
28.9144,1.23731
28.9757,1.14696
29.037,1.07935
29.0983,1.26019
29.1596,1.42037
29.221,1.56511
29.2823,1.57981
29.3436,1.37594
29.4049,1.43787
29.4662,1.78991
29.5275,1.65081
29.5889,1.45806
29.6502,2.0832
29.7115,1.99671
29.7728,2.25936
29.8341,1.97878
29.8955,2.194904
29.9568,2.43725
30.0181,2.63637
30.0794,2.66379
30.1407,3.12541
30.2021,3.18791
30.2634,3.29399
30.3247,3.67802
30.386,3.69764
30.4473,4.00564
30.5086,4.50652
30.57,4.87911
30.6313,5.3543
30.6926,5.6144
30.7539,6.583
30.8152,6.80352
30.8766,7.11623
30.9379,8.20689
30.9992,8.56509
31.0605,9.57451
31.1218,9.54592
31.1831,9.28659
31.2445,9.60731
31.3058,9.10528
31.3671,9.0201
31.4284,8.52017
31.4897,8.48743
31.5511,8.00694
31.6124,8.09955
31.6737,7.66804
31.735,7.79399
31.7963,7.55553
31.8577,7.43878
31.919,7.5479
31.9803,7.4263
32.0416,7.65035
32.1029,7.88674
32.1642,8.10421
32.2256,8.88088
32.2869,9.34002
32.3482,10.1986
32.4095,11.9325
32.4708,13.9911
32.5322,16.1054
32.5935,17.9005
32.6548,19.1264
32.7161,18.026
32.7774,15.9501
32.8388,13.6383
32.9001,11.403
32.9614,9.51685
33.0227,8.05798
33.084,6.82845
33.1453,6.49146
33.2067,5.69631
33.268,5.10446
33.3293,5.12044
33.3906,4.38832
33.4519,4.21541
33.5133,4.11038
33.5746,3.98644
33.6359,4.09183
33.6972,3.32935
33.7585,3.83615
33.8199,3.65562
33.8812,3.89019
33.9425,3.58155
34.0038,3.59426
34.0651,3.91617
34.1264,3.865
34.1878,3.66991
34.2491,4.07048
34.3104,4.02852
34.3717,4.18639
34.433,4.24374
34.4944,4.11203
34.5557,4.29821
34.617,4.30575
34.6783,4.52353
34.7396,4.27795
34.8009,4.68705
34.8623,4.79078
34.9236,4.51969
34.9849,4.69496
35.0462,4.82005
35.1075,4.58595
35.1689,4.18188
35.2302,4.35265
35.2915,4.62949
35.3528,4.84749
35.4141,4.62295
35.4755,4.77706
35.5368,4.89142
35.5981,5.1188
35.6594,5.40192
35.7207,5.42132
35.782,6.07111
35.8434,6.43635
35.9047,6.89726
35.966,7.15522
36.0273,7.59044
36.0886,8.07792
36.15,9.16453
36.2113,9.68535
36.2726,10.1161
36.3339,10.6025
36.3952,11.3062
36.4566,11.569
36.5179,11.9536
36.5792,12.2359
36.6405,12.3083
36.7018,12.1673
36.7631,11.9797
36.8245,11.6134
36.8858,11.1552
36.9471,10.8032
37.0084,10.3402
37.0697,10.0614
37.1311,9.40083
37.1924,8.83942
37.2537,8.0872
37.315,8.0001
37.3763,7.934
37.4376,7.55212
37.499,7.26936
37.5603,6.79408
37.6216,6.55334
37.6829,6.27633
37.7442,5.93525
37.8056,5.79401
37.8669,5.83871
37.9282,5.57455
37.9895,5.59877
38.0508,5.44782
38.1122,5.50017
38.1735,5.71589
38.2348,5.82415
38.2961,6.25897
38.3574,6.67835
38.4187,6.8045
38.4801,7.04021
38.5414,7.44449
38.6027,7.78819
38.664,8.43067
38.7253,8.76431
38.7867,8.9436
38.848,8.8071
38.9093,8.88085
38.9706,9.36797
39.0319,9.05492
39.0933,8.84622
39.1546,9.15852
39.2159,9.24183
39.2772,9.25588
39.3385,9.36038
39.3998,9.2359
39.4612,9.25742
39.5225,9.1003
39.5838,9.01454
39.6451,8.94805
39.7064,8.33833
39.7678,8.16282
39.8291,7.2618
39.8904,6.28282
39.9517,6.24153
40.013,5.74381
40.0743,5.25321
40.1357,4.59786
40.197,4.12151
40.2583,3.94568
40.3196,3.82732
40.3809,3.20914
40.4423,2.95051
40.5036,2.41775
40.5649,2.08135
40.6262,2.17741
40.6875,1.95768
40.7489,1.56452
40.8102,1.70105
40.8715,1.50616
40.9328,1.42603
40.9941,1.34781
41.0554,1.26456
41.1168,1.15024
41.1781,0.885051
41.2394,1.02282
41.3007,0.886458
41.362,0.956871
41.4234,0.977115
41.4847,0.69198
41.546,0.601466
41.6073,0.618769
41.6686,0.719581
41.73,0.407377
41.7913,0.48771
41.8526,0.328637
41.9139,0.43363
41.9752,0.368662
42.0365,0.206648
42.0979,0.409394
42.1592,0.127943
42.2205,0.377918
42.2818,0.51696
42.3431,0.185692
42.4045,0.20356
42.4658,0.0909187
42.5271,0.0677769
42.5884,0.0968955
42.6497,0.129663
42.711,0.0914278
42.7724,0.291216
42.8337,0.216877
42.895,0.0194498
42.9563,0.115603
43.0176,0.0973497
43.079,0.0341347
43.1403,0.283597
43.2016,0.168652
43.2629,0.133746
43.3242,0.241378
43.3856,0.614812
43.4469,0.474535
43.5082,0.351795
43.5695,0.567774
43.6308,0.674555
43.6921,0.580125
43.7535,0.938996
43.8148,0.997697
43.8761,0.964562
43.9374,1.58959
43.9987,1.77382
44.0601,2.18393
44.1214,2.72789
44.1827,3.30327
44.244,3.88752
44.3053,4.8591
44.3667,5.88293
44.428,6.6882
44.4893,8.10475
44.5506,9.45203
44.6119,10.7891
44.6732,11.6107
44.7346,12.5418
44.7959,13.52
44.8572,13.56958
44.9185,14.2009
44.9798,14.1727
45.0412,14.4051
45.1025,14.5178
45.1638,14.3131
45.2251,14.4314
45.2864,13.8642
45.3478,13.679
45.4091,13.4871
45.4704,12.9968
45.5317,12.3156
45.593,11.7597
45.6543,10.3185
45.7157,9.7733
45.777,9.40017
45.8383,8.30326
45.8996,7.81936
45.9609,7.60648
46.0223,7.31218
46.0836,7.38612
46.1449,7.14599
46.2062,6.9859
46.2675,7.0621
46.3288,6.9232
46.3902,6.83482
46.4515,7.07301
46.5128,7.08221
46.5741,6.83464
46.6354,6.87198
46.6968,6.50671
46.7581,6.29613
46.8194,6.30795
46.8807,5.71404
46.942,5.89983
47.0034,5.6344
47.0647,5.52367
47.126,5.63533
47.1873,5.57183
47.2486,5.57447
47.3099,5.70403
47.3713,5.6723
47.4326,5.46367
47.4939,5.37675
47.5552,5.23097
47.6165,4.74162
47.6779,4.34793
47.7392,3.73046
47.8005,3.4031
47.8618,2.57592
47.9231,2.10134
47.9845,1.77452
48.0458,1.44439
48.1071,1.11444
48.1684,0.906201
48.2297,0.925567
48.291,0.700317
48.3524,0.534272
48.4137,0.526391
48.475,0.416256
48.5363,0.183034
48.5976,0.199989
48.659,0.163301
48.7203,0.060819
48.7816,0.279694
48.8429,0.205344
48.9042,-0.02508
48.9655,0.0812699
49.0269,0.07484519
49.0882,-0.04598585
49.1495,0.0598241
49.2108,0.242585
49.2721,-0.001560876
49.3335,0.160721
49.3948,-0.0448766
49.4561,-0.231199
49.5174,0.00800202
49.5787,0.0321027
49.6401,0.143186
49.7014,0.124238
49.7627,0.351995
49.824,0.152845
49.8853,0.198665
49.9466,0.218619
50.008,0.53389
50.0693,0.734754
50.1306,0.810795
50.1919,1.12312
50.2532,0.947784
50.3146,1.30213
50.3759,1.46048
50.4372,1.75789
50.4985,1.88708
50.5598,1.9279
50.6212,1.91682
50.6825,1.79654
50.7438,1.6799
50.8051,1.73532
50.8664,1.67981
50.9277,1.22864
50.9891,1.04848
51.0504,1.20009
51.1117,1.23903
51.173,0.851072
51.2343,0.96155
51.2957,0.858664
51.357,0.929565
51.4183,0.613491
51.4796,0.469469
51.5409,0.38986
51.6022,0.350359
51.6636,0.0592986
51.7249,0.223276
51.7862,0.114862
51.8475,-0.193028
51.9088,0.0166194
51.9702,0.0267915
52.0315,-0.238901
52.0928,0.0754446
52.1541,0.209412
52.2154,0.320986
52.2768,0.003918814
52.3381,0.0342504
52.3994,0.366842
52.4607,0.147528
52.522,0.251307
52.5833,0.150403
52.6447,-0.0215054
52.706,0.0341941
52.7673,-0.0731239
52.8286,0.217305
52.8899,0.0495768
52.9513,0.119873
53.0126,0.06361075
53.0739,0.0873863
53.1352,0.003700069
53.1965,0.0486631
53.2579,0.0243587
53.3192,0.01759244
53.3805,-0.06017731
53.4418,0.001118874
53.5031,-0.0693523
53.5644,0.0600063
53.6258,-0.24275
53.6871,-0.119981
53.7484,-0.0178695
53.8097,-0.06792256
53.871,0.0386693
53.9324,0.119397
53.9937,-0.016713
54.055,0.170271
54.1163,-0.07659542
54.1776,0.157618
54.2389,0.04478586
54.3003,-0.0192579
54.3616,-0.08138857
54.4229,-0.113828
54.4842,0.124742
54.5455,0.132587
54.6069,-0.0868212
54.6682,0.0481139
54.7295,0.02524
54.7908,-0.129401
54.8521,0.0303705
54.9135,-0.03245533
54.9748,0.0764946
55.0361,-0.002180685
55.0974,0.117955
55.1587,-0.0134692
55.22,-0.0370771
55.2814,-0.0171051
55.3427,-0.154942
55.404,0.184828
55.4653,0.0681786
55.5266,0.269414
55.588,0.0159659
55.6493,0.101236
55.7106,-0.0476914
55.7719,-0.0332475
55.8332,0.11679
55.8946,0.122908
55.9559,0.0632297
56.0172,0.27109
56.0785,0.227391
56.1398,0.289773
56.2011,0.350595
56.2625,0.326524
56.3238,0.08908939
56.3851,0.0827343
56.4464,0.257112
56.5077,0.169513
56.5691,0.309523
56.6304,0.317765
56.6917,0.175142
56.753,0.168113
56.8143,0.256747
56.8757,0.274378
56.937,0.260936
56.9983,0.01676772
57.0596,0.132152
57.1209,0.009865615
57.1822,0.179423
57.2436,0.283186
57.3049,0.0329583
57.3662,0.218672
57.4275,0.144146
57.4888,0.0576445
57.5502,-0.0443051
57.6115,0.140381
57.6728,-0.007325815
57.7341,0.233826
57.7954,-0.0856097
57.8567,-0.000354187
57.9181,0.001745075
57.9794,0.215827
58.0407,0.154044
58.102,0.160147
58.1633,0.145593
58.2247,0.218022
58.286,0.226392
58.3473,0.391189
58.4086,0.571788
58.4699,0.568536
58.5313,0.410947
58.5926,0.401105
58.6539,0.7890096
58.7152,0.821188
58.7765,0.874377
58.8378,0.849618
58.8992,1.02469
58.9605,1.02633
59.0218,0.988209
59.0831,1.15166
59.1444,1.48542
59.2058,1.38013
59.2671,1.43647
59.3284,1.81243
59.3897,1.76844
59.451,2.17947
59.5124,2.60805
59.5737,2.78854
59.635,3.33032
59.6963,3.25769
59.7576,3.39878
59.8189,3.51575
59.8803,3.84643
59.9416,3.6443
60.0029,3.46839
60.0642,3.86731
60.1255,3.34974
60.1869,3.37402
60.2482,2.94708
60.3095,2.95261
60.3708,2.66492
60.4321,2.3774
60.4934,2.7168
60.5548,2.55637
60.6161,2.19994
60.6774,2.40793
60.7387,2.20289
60.8,2.03623
60.8614,1.78467
60.9227,1.89614
60.984,2.06855
61.0453,1.98246
61.1066,1.96425
61.168,2.14066
61.2293,2.02906
61.2906,2.12249
61.3519,1.82548
61.4132,1.99566
61.4745,2.03927
61.5359,2.1855
61.5972,2.13572
61.6585,2.19897
61.7198,2.0992
61.7811,2.03606
61.8425,2.24914
61.9038,2.61344
61.9651,2.33903
62.0264,2.4207
62.0877,2.65012
62.1491,2.64707
62.2104,2.56087
62.2717,2.49742
62.333,2.57129
62.3943,2.81374
62.4556,2.447
62.517,2.34259
62.5783,2.25224
62.6396,2.33047
62.7009,1.84638
62.7622,1.754826
62.8236,1.71553
62.8849,1.82746
62.9462,1.7347
63.0075,1.65254
63.0688,1.42472
63.1301,1.60332
63.1915,1.7578
63.2528,1.88121
63.3141,1.82076
63.3754,2.02612
63.4367,1.59797
63.4981,2.17521
63.5594,2.34464
63.6207,2.28508
63.682,2.77951
63.7433,2.8835
63.8047,3.30884
63.866,3.46353
63.9273,3.31805
63.9886,3.36546
64.0499,3.50158
64.1112,3.30976
64.1726,3.15804
64.2339,2.97004
64.2952,3.14507
64.3565,3.0043
64.4178,3.10329
64.4792,2.93336
64.5405,2.98756
64.6018,3.01417
64.6631,3.01491
64.7244,3.22416
64.7858,3.0447
64.8471,3.23695
64.9084,2.97277
64.9697,3.4987
65.031,3.60814
65.0923,3.95735
65.1537,3.83798
65.215,4.25524
65.2763,4.48171
65.3376,4.39933
65.3989,4.90567
65.4603,5.08232
65.5216,5.17234
65.5829,5.26602
65.6442,5.5057
65.7055,6.00945
65.7668,6.17137
65.8282,6.68242
65.8895,7.24573
65.9508,7.72935
66.0121,8.69927
66.0734,9.40026
66.1348,10.8115
66.1961,11.6969
66.2574,13.1085
66.3187,14.6192
66.38,15.5173
66.4414,16.5006
66.5027,16.366
66.564,17.176
66.6253,17.3196
66.6866,17.439
66.7479,18.3746
66.8093,19.2618
66.8706,19.5293
66.9319,21.0939
66.9932,21.9138
67.0545,22.734
67.1159,23.339
67.1772,24.1404
67.2385,24.1417
67.2998,23.3236
67.3611,22.8374
67.4225,21.3478
67.4838,19.8949
67.5451,18.4074
67.6064,15.717
67.6677,13.94
67.729,12.1041
67.7904,9.96975
67.8517,8.60643
67.913,7.1669
67.9743,6.19283
68.0356,5.22414
68.097,4.53514
68.1583,3.6432
68.2196,3.29657
68.2809,2.54734
68.3422,2.11599
68.4036,2.05462
68.4649,1.5889
68.5262,1.1824
68.5875,1.39065
68.6488,1.14769
68.7101,0.922267
68.7715,0.552926
68.8328,0.659455
68.8941,0.649843
68.9554,0.614366
69.0167,0.478371
69.0781,0.465818
69.1394,0.46733
69.2007,0.514158
69.262,0.144497
69.3233,0.113554
69.3846,0.10015
69.446,0.10602
69.5073,0.134636
69.5686,-0.0240707
69.6299,-0.00898923
69.6912,-0.009355707
69.7526,-0.191837
69.8139,0.142523
69.8752,0.131574
69.9365,-0.0250315
69.9978,-0.110007